acc_x,acc_y,acc_z,gyro_x,gyro_y,gyro_z,heart_rate,fall_event
0.10960569836134793,0.005657678354107092,0.6829142048659389,4.724021125693149,0.3311185906061694,-3.338079793609105,80.8,0
0.03340828385945785,0.016734409625969004,0.8217521529594692,-3.512397411823023,2.3641694293772453,2.351747852002163,74.2,0
0.1277226245720831,0.02642948785875817,0.8919457390561121,5.39731639293893,1.432628203790166,-4.289667826191243,73.1,0
0.23276358276896303,0.114686146164618,1.0024503366387036,-0.2750657652017068,-5.367239632410254,4.398312115638041,80.7,0
0.021901595033199685,-0.05472173084867436,1.1336243489910318,3.852689349340387,-0.782125268517294,-2.841690695233686,62.3,0
0.02190356516609834,-0.06463469915126599,1.0841203915057647,-3.45290384559297,2.741674106153825,2.8133439535756852,69.6,0
0.23950553786088696,0.14366197421429752,0.8031012802328772,-8.850802896903717,1.755769354239305,1.429802670039743,77.2,0
0.14209216749834905,-0.026264474188129824,0.9242431606751521,-7.4196444527843,-3.2838557662983443,-3.690070109038464,80.2,0
-0.006336926312194249,-0.10630353535770663,0.9914563383053849,11.263060508532698,1.746794591910651,4.6000633232211126,80.2,0
0.11510720523031576,-0.028512994209987003,0.9406689313330251,-2.690731341054078,3.8425348575786473,7.29775459677179,62.4,0
-0.005610123137495468,-0.01300527352440008,0.9396057161197559,4.932711282967453,-4.10045595208389,-2.8475813034812885,73.6,0
-0.00588757042843082,0.17549627277257648,0.7215885013018593,-5.83990329080167,-8.23298170217279,-2.4871844920587565,80.3,0
0.0790354725879241,0.11248262123767373,0.8070898773290539,0.8048462563481338,7.451066222910178,0.26108682493714375,70.9,0
-0.17959362935893575,0.13475206166322423,0.919559022629109,1.5678324806789208,1.3244066391265226,3.297115646798297,74.8,0
-0.1569901399015639,0.10199736423467862,0.5160161487582257,12.763854049956166,-1.9206256813430176,4.652949616004441,78.3,0
-0.017474503508916717,0.11462436716153142,1.0760966480014782,-1.4303643244613247,-2.064532238834615,-1.3612939940414217,76.3,0
-0.07153973444013084,-0.04880821265803181,0.7740981350433396,-3.200706220910597,0.6165202575998445,0.5238388992391203,78.4,0
0.08770967991143286,0.0001397844646515642,1.0830257199897706,1.5792012420779105,4.372277324190549,-1.3370696862226614,75.1,0
-0.05896288906254531,-0.07899153130235488,1.0698374006706364,-4.161431641362547,-6.341110174860241,-1.569158096903166,78.8,0
-0.11947644416023497,-0.0010488030537033378,0.8984460435331423,1.8430960019139506,-1.6839671512597252,-2.0201575927304516,79.0,0
0.2258778522705865,0.08841049909347411,1.1300822488552307,-0.24069804572017828,6.94666316380921,-5.181447784035468,80.3,0
0.022906843941615726,0.03345832848122468,1.09147960173874,-3.392179444882502,3.4633996144444232,3.2800416029518376,80.0,0
0.05810338456255086,0.15114808189602952,0.9336557793748039,2.2247277021955902,3.1050924263299886,0.38746107174742933,80.9,0
-0.1209697823456148,-0.09414157922272193,0.9167360577212452,0.48744616209340075,1.7123253477913545,5.7981991656530845,73.6,0
-0.015325926943021914,0.07002383506982397,1.1445849178496534,3.4214419756946715,1.3040213614365153,3.132360003461422,73.9,0
0.06331071076518394,-0.10483028018693182,1.0148020759111496,7.436040182277714,-1.9663354360513283,-1.5206806931482653,77.0,0
-0.08811922929067632,0.02941764691736423,1.1367045752552214,-2.25739385477155,-2.344509373768908,-4.336738158650441,85.8,0
0.09508376220148063,0.09403334225564788,0.6216538888470895,-1.8517861968606857,3.385756279753535,7.096050914673933,77.1,0
-0.02207664279025659,-0.001450256682421925,0.9947727645529193,-6.055413388160509,-2.26635176832656,-6.454463165185279,84.4,0
0.014996750024806792,0.07511266040869559,0.7433886369545941,2.3446362356884767,1.1920968435384203,-1.299160936515733,83.4,0
-0.022204793467527628,-0.0759732334832934,0.9761317238769855,-2.9013819635720712,0.6372890635652596,-1.2398496250501205,83.4,0
0.27227338214107255,-0.14636899781963833,1.0870730312518826,1.554875924250382,9.20592784643363,-2.458908999745206,83.1,0
0.04838033303144793,0.07570296224878031,1.2408710218623653,5.244629492549823,-0.6737736446140928,-3.2351292008642556,71.3,0
-0.07692531147470803,0.19440102340757326,0.8392749907344221,-3.0797929546822456,4.907545911458411,-4.640778632062567,70.6,0
0.14870538945238268,-0.07960449401698921,0.9011442792047025,-2.134272630154251,2.9706814437884423,-2.757180914275811,71.7,0
-0.09650123799652267,0.14221941801067953,0.9656700639386694,4.565306995739476,-0.49242012713179545,-0.19454928496293616,81.6,0
0.07506363140057065,0.0243423408816411,0.8338203347807164,3.183402750085246,-5.22474681019435,1.1616404191504037,74.6,0
-0.18516041486557305,-0.11356915216930762,1.1267839593183886,2.706676106916886,-0.22244694406051943,-1.9948590827695516,73.0,0
-0.10938232586781164,-0.09315053013521625,0.9694858181951564,-1.7612408963396355,3.7767929923382377,-2.014705682304272,73.9,0
0.07362334830429482,0.021578477336065004,0.9982935535064069,-6.462313338466387,-5.14423383696249,-3.9611550434409275,78.4,0
0.13861598959944926,-0.020446228792410367,1.0730259690161237,-3.2032524529558635,3.5099799064482635,0.6366662290891987,72.5,0
0.07056419374279646,-0.1112912976758239,0.9692432725436886,-4.54266231699143,5.640124855768932,0.18280847375548892,73.5,0
0.03612220611341114,-0.14940392812254052,0.8573691307736202,2.6169584132421644,0.4032296936299759,1.4422370210863624,74.5,0
0.013867556529285348,-0.06467193279265061,0.9705469642552299,1.2803469147919133,3.8375261459787184,-2.0566359269293595,80.6,0
-0.12742263884409127,0.039380900833111826,0.8515727960729916,-2.69377616180594,0.5890688282889046,-3.460711653186138,67.7,0
-0.03638130500736503,0.0193599247396862,0.996197133367473,-1.9254398768798404,2.399802051891414,-0.07428671237464264,76.0,0
-0.005276652515174493,-0.030123795750007832,1.1295406581202694,2.1404234650896203,6.273037200171712,1.9781565969363881,74.2,0
0.1768546671462699,0.040188719429148284,0.8037532561591503,-1.4369901007762935,-6.526698991027155,-3.3709357746859805,79.0,0
0.09123419474821537,0.12400267198626877,0.7501443497836862,-2.6151601885969833,-3.2139193497760306,-2.3848081317668504,75.4,0
-0.16156481864352806,0.059412651043414796,0.9873874903879511,8.903660080473768,5.252862039278086,-4.65365432241206,71.4,0
0.0888900763273754,0.007869132861041933,0.8648300574884141,-2.4733088759945874,6.0275064834763485,-4.452775579200556,86.7,0
0.003790126350042021,0.11280720066606889,0.9847617911617953,3.0088785569380656,-5.913288936947564,-2.0774435012371297,83.7,0
-0.031230640036715038,-0.0759850302216295,1.028060528091455,1.766590545997774,6.561675110791004,-3.196998906155234,77.2,0
0.12340115466090415,-0.0024919539555351596,0.6584470656607191,-6.854651691773269,-10.802985548208275,3.0415833735053086,79.0,0
0.17371994269951413,-0.00010879356003681492,1.0834774141487813,-3.055472475612769,2.62747597851933,0.11384597409818313,72.3,0
0.16175361429394383,-0.10369532584428454,0.8045497245567126,3.6860476803511535,0.9189359984070149,4.807529160303116,77.0,0
-0.05070610278671661,-0.021987416228435776,0.9766478074152964,-0.5916725366476208,-3.0790730973506695,4.8458954285687215,89.3,0
0.012894514897854252,-0.1874959680895303,0.8810926496842355,-6.5922281056215875,-2.820493719291119,0.05771297718772395,82.2,0
0.08975161176842768,0.21121780476629534,0.8972064477823558,1.7751968795509105,-2.665671572938836,-7.614514112221653,70.7,0
0.1670654152546831,-0.0737413788436313,1.2340936909426983,-2.620370903280544,-0.857440166955471,1.513859120171253,78.0,0
-0.0075009085414347865,0.1786114131421312,1.027890128119349,1.9615147896527196,8.341348573284842,4.347873353966243,76.4,0
0.02772092280034195,0.023808450571949247,1.1157032604430386,12.094985958774426,3.457035277390277,2.40334366835674,78.6,0
-0.08276019688072338,0.07648641321559589,1.0026412031304115,1.7209758148787626,6.02449734629079,1.3252536555892587,84.9,0
-0.0935447948896805,-0.028879979835093158,1.073002036198243,2.754778573202578,-1.3527240505158622,-0.9422123322999653,71.5,0
0.14750309868730377,0.04079296919616744,1.0426067543215178,-1.1429753807420888,0.9670874810400845,-4.476483556395493,75.0,0
0.21274880342849872,0.08504896399884361,1.0181684217030238,-5.038144459593961,-4.500697475890724,2.377149825046667,70.4,0
0.04135878541035994,0.08645524143941823,1.146073386374702,4.607662139365916,-1.1694678271865488,-0.7420032660206191,77.1,0
0.1704239477470429,0.09747733900743573,1.0034758180766405,-2.7262767868932776,-2.3204982236710405,1.186326846985999,76.5,0
0.0933963230057161,-0.016833271003917637,1.3227722858326558,-1.0313176542519986,2.05228474150647,-2.2309472941785184,86.4,0
-0.027414370552614906,-0.02803596724913551,1.1240797359218657,8.070639910382662,-2.968788437044467,7.597606571603346,71.7,0
0.09336747266100967,-0.13941763252676037,0.8090688953390466,-1.5196849141410689,-3.5148327142633145,0.9083605508851643,80.5,0
0.23456438797591628,0.07232190111769367,0.9535175436525526,5.468976593135445,1.664673860829626,-1.443300816946889,62.9,0
0.04570087530680582,0.12823787113234428,1.0395616399236003,1.743651530664458,-0.22477126086164853,-4.318091562018299,85.7,0
0.23775723869768073,0.18159816799179296,0.9866745253568056,-2.488909677239377,-2.9422430459943825,-5.315026528941152,76.1,0
-0.26436941249076934,0.05051726345805078,1.0830310128458251,1.5363329104187609,-3.5559053507088327,2.358555547962855,76.7,0
0.14862830052502685,-0.056647977290856924,1.099552505725081,-3.223896072048492,-2.9436530571335284,-2.2125312940607222,74.9,0
0.06044564818858055,-0.14970961432894556,0.7760619521301553,4.071262991583359,3.421381012974524,-1.7096780031857761,78.4,0
0.014119117944095906,0.12416667330833506,1.1721616317074741,5.611922227525779,1.7536181979229217,-2.0627858369262264,73.0,0
0.06101129318426028,-0.15962765667775358,0.9054773801770933,0.22053208013467507,-3.1717439257410045,-4.149850744004784,76.7,0
-0.1885082697521071,-0.014060407774376674,0.8906143241202864,6.0411439204616855,-3.0046414479394388,-1.1027326021257833,82.7,0
0.023639373459498573,-0.0024306827943645914,0.8901316410941689,0.7203318630934108,-4.8187998685555495,0.21428507561051086,74.0,0
0.09285350858140956,0.013054486214898065,1.1012864608985875,4.115308941153458,-1.6516847157064247,-3.8251013244274126,74.5,0
0.2273472853689819,0.023580260003584014,0.939939845277832,13.280384690750715,0.5164078615457631,1.261322863285772,74.6,0
-0.012192426192837683,0.03381475563675751,0.8804672533493438,11.138020856093522,-3.6915536322549936,-4.64932548231939,80.8,0
-0.04701923234718251,-0.221536326207853,0.9164061263834694,-0.8214847320127477,9.186716952364657,-1.6757698623230868,75.2,0
-0.010210845230144379,0.021465590987012673,0.7107962511626185,1.320772587488866,2.6198862271973913,1.3855082079919854,73.8,0
0.1598482541242489,-0.20295755741118773,0.853675435407277,-4.7428019043279965,-0.13513728144842588,-0.05191028455665714,76.9,0
0.08945013315916214,0.09322180730909949,0.794062467702035,3.5939052395433677,0.3573050249284278,-6.236795555012951,81.3,0
-0.013571224452044658,-0.03551251558036121,0.9396246004256164,1.7514754063594828,-5.843899225710234,-10.587780710453796,69.5,0
0.11159209197360273,-0.19570367252233506,1.0796289905410388,-3.4830848374869685,-5.035916585159612,2.154500286553337,79.7,0
0.061649305921764846,-0.061420467738537585,1.063081385139984,5.340818212169102,5.556146880563303,2.622828231236747,77.8,0
0.1662373988639467,-0.03700753391846538,1.1685125746319875,-1.1952432432309357,6.867415083161464,1.6620119571681693,78.0,0
-0.03424637126528228,0.13906996175550046,1.1350963725944931,-2.3440859561965333,-9.304644005244407,-0.8635486670429903,76.1,0
0.010680542408267817,0.03966377417502451,0.9007104927622435,1.7977333975545347,1.9756134807912633,-0.9425075237778774,76.2,0
0.002947021624141087,0.05444449443505803,0.982860710113057,-2.092827165867042,5.802881711392863,-0.40525550219520723,79.5,0
-0.1256217937758542,0.1381221634220601,0.9751165858667872,-0.14255787132955755,-1.43531682024404,2.2238269986366124,68.3,0
0.08553443324774912,0.010385571207551052,0.657342097591717,7.858128207293719,6.381242828935055,-0.5071942848413544,72.0,0
0.08132663266158671,0.09541879610324033,0.7974110694635383,-2.7660814007274803,3.2228597921534,1.421095528526162,67.6,0
0.05061361479709531,0.0883861113931992,0.9549069984273332,3.039342672018689,1.8938228377808173,4.994196731580386,85.1,0
0.021849543994982373,-0.10864694935694123,0.9540655347288787,-2.6257462291335534,-1.0275637289545871,-3.674794839485068,82.3,0
-0.1198444890460497,0.16729835776298294,1.056848758130775,-4.379361781342106,0.38686167526509424,-0.704378976300002,65.1,0
-0.00047743873184308283,-0.12203017800706946,1.0495462444303771,-0.36697100499718605,-1.8791387874254164,-3.2618794380034175,77.8,0
0.008874258016787664,0.11173666494778482,0.7143961246850397,12.07992052123081,1.2451200853394717,-1.4952771385486991,74.9,0
-0.04627327230659427,-0.1317073036905633,1.0577895101686294,3.5173157723094297,1.0617765218707838,-0.384610354095481,79.0,0
0.030645714600078908,0.08012367881516733,1.0067880809680645,2.0792368570470616,-1.8240080968402843,-3.3426115661525033,77.7,0
0.09848610281774461,0.20619148781501725,1.0735059772466944,-2.360484073283172,-8.177544329095863,-6.171450791077111,75.3,0
0.2763423081452636,-0.0012978656550211298,1.1400298381462384,-1.7306232769811851,-0.8189500047133642,-4.964815899670738,75.7,0
0.07094933753982068,-0.005635564285314632,0.9585675540818043,-6.675647519292331,-4.275067677381169,1.6855019578880328,81.1,0
0.08090604688673173,0.08104399993168493,1.166838235547012,8.077661927039822,-4.707663525947218,-2.5396413163800307,73.0,0
0.04106649010805993,-0.012939645596254306,0.846589931916043,1.2100989204025696,-2.897992198892661,-0.8311146467723793,74.1,0
-0.18025254583588496,0.20182787037428215,0.8381392819441672,0.8187713535741113,3.4729059872087116,0.18795267238082017,79.2,0
0.04681833494609398,0.039219224945869574,1.0443158285203311,0.9173138990570656,-4.666751187015361,3.44754840562905,80.3,0
0.057227625192923175,-0.012016950822072579,0.924684868204223,9.405672593233607,-3.7271313077644943,-1.078503604956672,77.5,0
0.3455890534982343,-0.03402855278956832,1.0192448846928455,1.3477522924624983,2.9684499541272658,0.936409466937519,73.6,0
0.0269166842262653,-0.07329484701730206,1.2789473179766737,-0.8663977892038286,-3.2157160986394775,-4.301851359556212,67.6,0
0.0861856810800335,-0.042775498675748966,1.0390242610255964,8.09600192771406,-4.734240018803229,-0.6112200738471083,67.8,0
0.04583458763537081,-0.015067339365859644,1.011825430829618,-0.583447996575049,3.3971130041252446,-3.714976748687163,75.0,0
-0.09024136451434385,-0.028763907349858005,0.8496169432022229,-7.612128466818693,-0.543755188858256,-0.5365817398358107,76.8,0
0.18713873774180245,-0.04581752741371038,0.725003029006348,-6.8715290425833535,0.2744276963980183,0.4847581638185099,74.2,0
0.14023196392241288,0.22988412303524394,0.9691180077089734,-0.8626941388275416,-0.9402447220788824,-0.8898374258815128,70.7,0
0.14492383364516565,-0.08300950764894899,1.1400305369912294,1.3123741862239504,1.7778961647115277,-1.6081067613556794,70.0,0
-0.05912649457536867,0.034663258764617476,0.9315592989408988,3.6987549476057944,2.878986438232975,1.0227386045676226,76.8,0
0.2183353173123319,0.0792521009760872,1.0402193748808053,-4.13236003936119,-0.5165436125349141,-1.532236751480044,82.8,0
-0.1182221275350737,0.08301079955837327,1.1939745909077875,-1.0136640696911818,-6.292214933514575,-1.573586379186104,72.3,0
0.12042285125603243,0.0141392924217528,1.190227446984554,-3.6434252258774156,1.2494217940414158,-4.000917797673756,75.9,0
0.3128546750971974,-0.00407025718473096,1.0443223831402673,5.011713258743824,-1.4280262369946188,1.9220983541544991,72.4,0
-0.0688643590156826,0.06515474912395065,1.0055159717986013,5.770888212074907,3.6005960635615253,-0.16068986678847197,79.0,0
-0.01795572755233263,0.04665216499782007,0.7522050426495386,8.812179535268383,-3.761565658728076,-1.822542010918026,75.4,0
0.06195816381051695,-0.005895883476751337,0.885470803373459,1.5819075642259448,-1.3204575524314626,-3.9470339730759085,80.9,0
-0.010417078493943903,-0.1361878571724431,0.937886628797289,8.39383196683681,-6.2238407732892025,8.88011516202023,76.6,0
-0.13607961172793592,-0.026792372233324754,0.8521502582848772,-3.1180613314435424,3.289253269714339,-11.462997775626619,76.6,0
0.058227556976723285,-0.09465501637074578,1.0172679894429146,0.9717382113018154,5.146469126792209,-2.881589697746176,71.7,0
-0.07747644564713259,-0.046715955006632656,1.2667472275229152,-4.773686150411486,-2.0495905742955234,-1.832889909081504,71.8,0
0.10683109167622179,0.023322323851695945,1.2076642388992425,2.5800033363582418,-0.815143617274917,3.4980665276633602,78.3,0
-0.06033090810805637,0.055873614399661625,1.016581979274681,1.2813462236047506,-3.4006524099805917,-1.1952956003701032,77.1,0
0.23599212860210472,0.1980452751292406,1.0969151108037243,-11.042310492139933,-2.9956680460340688,0.6914237335687677,86.1,0
-0.04399039508034844,-0.033740637890381384,0.8707093526965821,4.993231755981515,2.9129549699559854,-1.6765306327751486,70.5,0
0.011352618055318932,0.09746256352751508,1.1996134026003202,3.8490751107341157,-2.117436859449332,7.005868606526176,81.0,0
0.14762206608436038,0.05059600244378366,0.7457050106082229,-2.5003874843321445,1.995629739040423,1.5023310598613606,76.7,0
-0.09770371797207462,0.14959976706397898,1.1169242241629243,1.2654803601736102,-0.06396616944742424,-2.4712972484233977,71.1,0
0.07729519215249553,0.0776228719595626,1.0543384565299663,-6.721837834843764,3.1523617406080335,2.674167462388076,62.6,0
0.20685713051389137,-0.08084814272863163,0.8666210919868363,-3.465992275394237,-1.6480731315941186,-0.9401602729974711,72.8,0
-0.14289798814734728,-0.15230460292912315,0.9486819864893093,7.510857436011061,4.5583002409664966,6.941319393953673,73.5,0
0.0721560630238765,0.051126169966750484,0.8098620945265911,-5.194559183407423,7.87689284258511,5.135604429787232,73.4,0
0.08118593530981083,-0.03284509979003908,0.8162539928296652,0.04295842904274018,-7.141469249687898,1.1186807401260674,80.5,0
0.14381874461327726,-0.07803137459505972,0.7413418999064105,-6.283624507091555,-0.3871111873056528,-0.8995884232601241,73.7,0
-0.09843408530536983,-0.10675777045330777,1.0951270853301067,1.5207534905469307,-0.3896849758325906,-2.4129775640840783,77.4,0
-0.10845479357011316,0.036097549758715555,1.160801745414002,2.532352973878157,-3.005994377384444,3.351934752200587,69.0,0
0.11263298787402772,0.1707707699313365,0.6557288204279861,3.258585974072155,1.711532567417492,5.517128362091037,77.9,0
0.08563816078798234,-0.02086723457060417,1.255745827422726,2.105928016302144,4.706508371959737,-1.1085236791966102,69.5,0
0.08005914204150519,0.07902703110753223,0.9781987645044741,6.420759931037845,-8.290880926642185,1.7069774613855964,79.4,0
0.09157378513963708,0.009773364978240748,1.0234779807315257,-2.493127217043625,-8.608673787161212,1.9206860114901838,80.8,0
-0.031602966589418885,-0.1089382089103393,0.7591380746622385,-4.7622352399135215,6.9611999481321805,3.382134238651305,68.5,0
0.07787044365932043,0.09348113435104174,1.1781238625247297,-2.642277245204405,-1.0063329677039303,-2.9584067755617176,85.6,0
0.08516869679584174,-0.08946920440273713,1.010037513975025,-6.058038673630737,0.37572001904768293,1.6870353526935071,73.7,0
-0.03572217016316413,0.02216266305935647,1.1508239359656949,0.35450861487443003,-4.487577172402299,8.52681963912775,77.8,0
0.2738929413373708,-0.01415204150053052,1.1631287480971615,-0.6282974126362397,0.1861933936013802,0.3645307022322066,79.8,0
0.1068599505094145,0.10930774345656918,1.1802311634081906,2.148918038984459,5.749276846069786,1.7238250202279437,72.6,0
-0.09295641966431782,-0.08581509924706866,0.8827578836221696,-7.273086626542707,2.0849822744034694,1.4394061663173499,72.5,0
0.12878643303605958,0.05908699078019598,0.9488056988160193,-0.05855568596507758,0.8095263358215377,2.10338216783629,73.9,0
-0.06696180042727856,-0.06397974073487009,0.8882446887905728,5.465163893921097,-7.4339913604340175,-4.398295171962258,78.3,0
0.14445015244909426,-0.031110521232878514,1.1142644694111925,2.5750325045008386,3.119308266759437,7.781090981545907,78.9,0
0.1890314694808885,-0.3435200227540102,1.029933384404561,-8.529911440815555,0.04026491606157616,0.3799263504316617,83.0,0
-0.048481878202205245,0.22920985716179085,1.1403717296019857,-0.052690304165153926,-2.5535855108050747,2.06957860594022,82.2,0
0.1656051355093186,0.0750556932826232,1.1469108204585847,-3.297487322035571,2.698535725294338,0.334728457711957,82.2,0
0.0995337112323798,-0.056734748593816456,0.7209110763591637,0.057878484334242516,-3.5609946408858217,3.584711620768513,80.4,0
0.1486472191993388,-0.09246556883329939,1.1826155195830808,-1.712939275060023,2.355247755045627,-1.9070146686368672,80.0,0
0.2776151579184737,-0.029564875287934052,1.1226291436648577,7.826833840902189,5.11092067009548,-4.967240746304198,74.0,0
0.020553426079655546,0.09168795348194517,0.9246162675221754,0.38570932224935683,0.6477007238862885,-0.4465069648321109,73.2,0
-0.04044833972289874,-0.16920849255849257,1.0324689149794444,1.4254142152219693,-1.7807772965440454,1.821348418916592,68.3,0
-0.05674173155506279,0.005841558070566187,0.9614495642625944,-0.1982862403618266,-2.4030361801109037,-1.317155675545313,83.0,0
-0.04789723419585258,0.19706418724626734,1.0724083517946763,2.1350277717788613,1.6072784436985883,-2.5513610536826623,76.2,0
0.0407477948703075,-0.09339463359678042,0.9242905428942685,-0.9759840113021001,-1.8145199488190809,1.3241105172819163,77.7,0
0.09093823697799727,0.0280385038763655,1.0518390861753661,3.4808301570116793,9.939257591930463,-3.52475458940846,61.9,0
0.08320289591960228,0.24033098152577578,0.9900957956989028,-1.7636646726760632,-5.943488328273637,3.721558328659549,72.7,0
0.14926198988432285,0.08321516296907729,0.9151709144757042,6.194040179973712,-0.5450009610565814,-1.1867681855104084,80.9,0
0.05156022702534885,0.03259238204854552,1.008520436735309,2.234011934912404,1.1447997936422807,1.890226644905394,77.7,0
0.22442408925887802,0.07066364549090028,1.3859704360233136,-0.6865077733954453,0.6447727234910571,-4.412351068372326,72.7,0
0.01824118001144527,-0.020086533500970238,0.8771695055261477,3.7894132398986478,-2.3551642505842616,5.143013610939847,75.4,0
0.3764202999907542,0.149963128530344,0.9425084613107646,2.2186352139706833,5.175502678698182,1.781696822203027,85.9,0
0.12508008173180074,-0.019933002290021196,0.8797831400550453,3.722918180376719,2.8007821827006336,2.3318430041893667,74.8,0
-0.0528589067699539,-0.1759181608735977,0.8955175421708624,0.385847454359594,3.10710503467148,-4.904396163438867,76.6,0
-0.07850709976733346,-0.01913031039404599,1.1023661530078037,-1.0853449548539764,-2.805288092788524,-2.8484520922032712,76.0,0
0.10789668982918224,-0.07667345298767035,1.08738236894541,0.6087428211294899,-1.6914972291407453,0.7565129065810587,77.0,0
0.023184465760897895,-0.00811940121974293,0.9791204745018035,-2.251694738483018,2.0506479820637527,-4.114425744561248,82.0,0
0.13568005929105104,-0.0059084059080630885,1.1339444877903668,4.406978900380224,-4.622122708594213,-2.382458644498482,88.4,0
0.10678851494882538,0.13974231998049075,1.0990164943241465,6.61134066495324,2.7953772072936816,2.869102458573167,83.4,0
0.04126053048117527,0.08952927266643856,0.9556498720960679,2.6056688321368693,-0.42399207960568114,-2.302266744815064,77.2,0
-0.05161524616820859,0.046326548757539665,0.7499202887308691,6.381709245749089,4.471301576778849,1.4203979584524309,82.0,0
-0.13178166696230376,0.01970545886674049,1.1044674511923505,5.070890457491688,-1.7960021701776374,-3.1428205978318933,68.5,0
-0.0035817942480425233,-0.08588580088579945,1.0054496931502963,-1.2071328586732983,7.6195450393745086,2.2832166142130723,75.9,0
0.15276785531881668,-0.19811752376656777,0.9833335195550887,3.761066251668414,1.7241128233078036,-4.2593491525334235,72.5,0
0.07569124929562449,0.03131600113927832,0.9100927969985426,-5.773346525039135,2.185814357481281,2.256770179410865,73.2,0
-0.09948865344543854,0.09946412035736589,1.0916973423674474,0.8373095085066877,-2.9087994990260104,8.221255159452733,80.8,0
0.07078171110214185,0.009166611675541081,1.0322744378642752,-5.320594606405017,1.0640293000051058,-2.032927646506851,82.8,0
0.09623808556746041,-0.03348543227867003,0.9444757935796555,-0.49345156908436416,-2.3067791546008176,-2.5128771183460317,69.3,0
-0.05606289234413596,0.06645021652142126,0.7961818179171632,-6.478626582684753,-6.4694701336399385,4.329160350964726,75.1,0
0.06844701271346335,0.0116667799375653,1.1401893652820114,4.924368237177227,-0.821747129413265,0.2461978931898937,72.7,0
0.05698504621351999,0.18857441919739612,1.0707357834733815,-1.7769785969870657,4.883832744472732,-4.444706292366226,79.3,0
-0.08715643573967476,0.14327283420682843,1.0183104349918393,4.078451490146935,-0.26930525419144535,1.2894092794822014,81.6,0
0.09293448324179399,0.11595080570233296,0.5814839007329003,-0.33984283214293415,-1.2354081479730215,0.8228960468863784,87.3,0
0.11729414316418812,0.09577341142099038,0.974315861432591,-8.29892136340581,-1.2911526900976418,-2.403931447425368,82.0,0
0.17996614918103326,-0.10901674144514571,0.9438194444786505,-2.178729528974669,9.414648381112238,-2.5503845698628096,81.7,0
0.17645624624418838,0.08629937020525998,0.8872256472418489,-2.388202459239163,2.5553731399129203,3.300836299151245,71.0,0
-0.11532032415485093,0.05763259576465753,1.0931352917846426,-0.06649873968318327,-6.678024955348776,-3.7547710600833715,72.6,0
-0.06253900478981472,0.08064247283911634,1.0872290051250917,6.78615853192775,-2.281211593883628,-5.208554732102473,76.3,0
0.11180423206503917,0.06926094868130526,1.0455237075788582,7.531275402006558,-1.683432415562898,-2.9450451629251964,88.8,0
0.11165431410946505,0.06527625878480656,1.1356836372151613,-1.0405447103748886,-3.029069683617783,3.2890189478993546,76.4,0
0.11180572235672576,0.2900866469549595,0.8266552228949235,-5.671254263630022,0.2702979276475824,-0.9936158093598358,83.2,0
0.5123277788785665,0.012381433004808096,0.911951891484604,-3.34848944558723,-2.4103556199625613,-2.1444352266091324,73.9,0
0.11850686128318004,0.11363373808293303,0.9912188394778708,2.1582412599512413,-2.1535650274512514,-0.2602062696796239,75.9,0
0.18626787682167184,-0.027098981026400324,0.8866996971158128,-0.48709108456979733,0.6447786392280522,1.8524301121346107,75.9,0
0.16448021161918427,0.0990641583887672,1.0890753832555313,-7.08895100988672,-6.471033188365599,5.831925330046398,73.5,0
0.12816695015669577,0.11393198902324556,0.9016698727802457,-2.2661666551096222,-9.034498827142185,1.333536559995189,79.4,0
0.012167690643158528,0.05644260771353479,1.1747555006670132,5.902082650124017,5.219851970475989,7.44807148909514,69.5,0
0.14107630645919209,0.18692469423764999,0.8403260897374716,1.315151808456865,3.5163605439614996,2.7792742268837216,66.9,0
-0.04273902574450861,-0.06842760363604175,1.2997975474250927,0.21281138352264298,1.5493476106980586,-1.130939875094262,74.7,0
0.02158176719119894,-0.028722094166822216,1.2843946033403633,-1.749572708112231,1.279607089533151,3.385998758499208,78.8,0
-0.00824362573949241,0.04123800860234896,0.9657870280526983,-2.0698093841995195,-0.7948607858351858,2.4204889537972547,72.2,0
0.05982489672635871,0.10808068534842222,1.1519255676388622,2.447822559952932,12.667058125043424,4.416060758444379,87.6,0
0.327759028000821,0.03794295212949332,0.9199357909237089,0.6392731769022835,0.8104087699150947,2.8004098458529842,76.0,0
-0.17407182311100977,0.1485759036510566,1.1319929747347017,3.469572859082839,10.954005081161254,0.43293240260104005,76.4,0
0.1323512228449416,-0.04616898709663193,0.9536032502814844,2.4599127547802815,8.663790749837078,-1.8275310514439997,71.0,0
-0.1435259045427582,-0.09405784894885545,0.7871840152237274,0.08874054716059694,1.938932268250503,0.51249571281962,79.1,0
-0.006631823894732013,0.05081283365365047,0.45007727184816515,1.728944103955481,-0.8819532756572595,-5.631635861674087,81.1,0
0.1806740716360839,0.012281972388630368,0.9396929830894084,-2.6663961603103394,0.06724806580240093,-0.619191962582055,77.0,0
0.057713602291455536,0.074286372035822,1.0218593763027939,-0.21675883967412574,-1.683473855015713,-4.482628304916635,77.6,0
-0.07932937335151673,0.017259770913349605,1.1795474639054324,6.03427690084631,1.9362080744911705,1.7410596847320141,77.2,0
-0.035836445111196186,-0.014001979062345706,0.9854937548227085,0.048195124555638146,2.829938221162931,3.1699488060564724,71.5,0
0.1315517298721611,0.012506242827627651,1.1304365202076383,-0.9773574758953191,-5.141593845887278,1.19897366146384,83.2,0
-0.03764399580605639,0.022884889479318493,0.911908767916771,0.9471799321811435,10.980758527892863,-0.6178788333494314,74.4,0
0.07597503074983698,-0.01049812998483304,0.9294081545702833,-5.245066508759624,-3.2801266054729616,-1.083951894420527,84.6,0
0.05546862078845766,-0.0003132046323428145,1.138105352379288,0.993817281621349,-11.282544362812773,4.563819737355525,70.0,0
-0.02819204171269804,-0.02035933369869102,0.6102988272996093,7.63219807262154,-0.3435506637389975,3.7487803073955366,80.5,0
0.3072732907190391,0.10566651198694066,0.9819475743354373,-3.638764593987603,-4.823450989775381,-4.0329696584706785,76.9,0
0.12607028267816134,0.03940210045057993,0.9200057975666203,1.2017481761967124,-0.22439798553800674,0.9699187513070865,76.5,0
-0.19301711039891284,0.24567524721687664,1.1840916807278425,-0.10572408410009665,0.2978855727995219,1.23576614269961,73.0,0
0.07237451777233132,0.036070455127846186,0.900763055753027,-0.2208932763143029,1.8701822223776332,-0.7807630712879459,79.4,0
-0.029414375772206555,-0.03508574703286617,1.057487745435514,-0.3020748720020627,4.224590772429045,-5.1896991146214475,78.7,0
0.1522920001755469,0.2870675374863065,1.1182275454002042,3.2143899769679316,-4.231393871128675,-7.807381535154653,84.9,0
-0.04510248861192408,0.06136263777143354,0.7561106008804385,-4.941546034592768,-1.5260109062796077,0.6545371896481874,79.3,0
0.03623162702397212,0.11901247868928168,0.9590944537589148,3.099031904584763,2.8498962949654123,-6.433955623916665,74.0,0
0.11059847347765486,0.07921029832024916,0.9152545348871093,0.3111050831253063,-2.761135662038525,-1.9894546782697462,73.8,0
0.1538906233004146,0.08230110292977487,1.1219439870244392,-7.93225187935474,-7.885063038148936,2.600767504235784,77.6,0
-0.09403556884669313,0.07356540513524742,1.0812622761218291,1.7092721128364596,2.601453159026655,1.5804656507638823,83.4,0
0.009859851699086201,-0.09020845647760653,0.9450196954911226,0.5126395052700053,-2.3740639457447763,-2.2670290488508495,77.9,0
-0.006993437339314734,0.0567529047561412,0.8228887924375923,-3.922892089911632,-2.6536123016995727,3.4028060425655817,81.1,0
-0.02839950790884542,-0.1124861303850239,1.1357220044030134,0.7225722394565376,0.5042769824942863,1.9989609358157694,77.5,0
0.2618545088337316,0.0025637163587465747,0.9698520835101827,-5.923191690456493,0.017380791513527432,-1.8545734748352651,66.6,0
0.09859780531531467,-0.05256174565632872,0.7372435151498806,-3.0811669028791404,4.188322379849012,5.780387434471161,78.3,0
-0.10130607452020542,0.05574701858487241,0.7501429401545114,0.1663905011202636,-5.246031591659392,1.8520270614163645,75.0,0
0.16014343364657313,0.053412624733823466,1.0456450145109464,-7.58527846793086,9.501044442081497,-2.962989046734143,82.1,0
0.30465874364151596,0.06811458907651868,0.7886290710851722,-5.18123285157953,-5.939392095705402,-7.801295570054256,84.3,0
0.1738958312661376,0.048729657274908716,1.2589471240405419,-4.508467016679788,-1.6285464094414872,0.8508150121650481,85.0,0
-0.13232439591448159,-0.04068253417863989,0.8394394573461004,0.3562761737263855,-3.64779950845031,-1.9186332063397338,75.1,0
-0.008108088743950158,-0.006100348935167962,0.9799458911964085,1.986025883148754,0.23326902263064478,0.07967293780516899,73.6,0
0.20202933790239475,0.1120396161254485,1.0038667949240458,-4.017611050814842,0.07885132612831953,-0.8994746198104147,74.4,0
-0.03492033587425368,0.12678566772943997,0.8705933391144731,-4.270189423954985,0.6987417979885132,-8.352983210231418,75.4,0
0.10325833137754742,-0.09467830986265492,0.6440259454133047,0.6215044951851553,1.0975863569603672,-1.1101580504552464,76.8,0
0.1429560864115204,-0.13309276325126465,1.008634264642434,0.500174546331582,5.486867152442791,-4.1896414974213485,71.4,0
-0.06123165658936995,-0.05268893832047121,0.8670140014846612,-3.1510743205674143,0.6578947563295007,-1.931009579528499,76.1,0
0.04285695727258399,0.12452075820322507,0.9974807641424664,8.229241451733722,5.831113223252863,-2.200165859228085,65.8,0
-0.3389520808082887,0.14148840301830343,0.9616503421641936,0.8297602878708535,-7.351668043982547,0.24279841725686682,86.8,0
-0.07292651696011478,-0.07247118804011717,1.0194936872107705,-0.7657428480931174,-9.17422633363762,1.1391429826715918,74.8,0
0.01969182183282077,0.05073093537363383,1.2142805180984089,-1.737407082879832,0.5335491639007125,1.7531487739915106,73.9,0
-0.09973398183578193,0.20344313331400876,0.8980725480909316,4.5397437930655915,1.3733836938775816,-9.111913419898144,78.7,0
0.24588935647179622,0.06153114772403338,0.9096733018486256,2.452699780347485,-2.242205834581149,5.400705474961827,80.2,0
-0.1216169653552759,0.16215032852330935,0.7301304045869165,-7.819400115238381,-0.042577385151448904,-6.201337056741676,65.9,0
-0.002805338403638044,0.11987265700830985,0.9507224073351058,-3.131150207583296,4.516382267145354,-0.05111399247477984,72.6,0
0.06568886927433096,-0.07101987062279108,1.041480498391245,-2.0105379381993824,2.815455624687262,-3.1485703804003293,83.1,0
0.22295279468793383,0.0010018576502921865,0.907475768364346,-0.053780179985071556,-1.385850657263379,1.1230025479445398,80.4,0
-0.12230345814153272,0.02347544782918479,1.0424645750608237,2.822107101099614,0.8310522348492516,-6.952030319370198,70.1,0
0.18957965025859513,0.030413338802134003,0.9533737211766213,-4.815683941305601,3.1873123595977986,5.887107237730925,81.9,0
0.05122796732235045,0.11163289534385713,0.7846600643046515,-0.3573336604875525,-5.164100739259504,-1.3653714610046965,79.8,0
-0.0677810381257541,0.06086847622754085,1.0267977606774656,7.646699627361853,-3.3809322800565336,1.9020467446023055,72.0,0
0.10545241691159249,-0.2736200943778115,0.9491251799652474,0.1307718103407385,3.878087988504907,-3.0423135376919777,76.0,0
0.07388716346881641,-0.1112840273092726,0.9984136732114037,-3.1243294359348126,-7.2645944091868815,6.3113869798532996,67.5,0
-0.02202602525905535,-0.19873809149760432,0.8949575175184376,-6.0039530793842415,-4.579458229036724,-5.2139152471060655,80.1,0
0.05837625019880227,0.037536524065533414,0.8816896215513658,-2.1910595644733863,-5.096139089547943,-9.997755643126817,83.7,0
0.003762368376588783,0.044048764946776106,1.0036116211329447,-4.854367359117926,3.8549187325333634,5.179061263044512,74.3,0
0.06362208143014977,0.048322495861071846,0.9454100131936798,-1.7757003468070776,-4.556310509926568,-4.469491311469149,76.0,0
0.1294556809425256,-0.07589282677146163,1.2386417373753897,2.4398263722492537,3.325949895099321,-0.2656374906013992,78.1,0
0.24032201793744223,0.08741440051199892,1.0998095768241747,0.1663156064190946,-1.483939491155506,5.92186420782695,74.9,0
-0.09853785985922188,0.09162624964685293,1.0617506389201532,-2.160068622399998,7.470563032774938,-1.5401007352481884,65.7,0
0.305964004958752,-0.10551490672051576,0.9533778797747878,-8.058073166196214,0.5389704066099158,0.9891110712463617,81.4,0
-0.1842505359427002,-0.12660382014488725,0.6760964827285236,3.7439775310442673,4.481155186684328,3.096885619414801,82.0,0
0.03178578859573,0.019986831377306214,0.8588607608573482,-1.5861692096480284,1.9335079171103025,0.1141952644165373,79.4,0
0.12059806477814919,0.19917822736133592,0.8829059821123523,0.4859401978751896,-1.8934931234646377,4.944215921123869,83.0,0
0.08371902412820392,0.18997427421986424,0.9387523420565129,-4.102810554650318,-0.05268897229394894,2.680498522263432,75.3,0
-0.024723942378471253,0.07634043604480524,0.9749960750915069,-1.8403036074891388,0.03518900073689729,-3.3972938985983347,78.2,0
0.025025329957126977,-0.052999667158007635,1.0784112448228242,-2.6096192525776964,-1.9397696836576241,2.780693288435185,72.5,0
-0.009160112159059937,0.10868426594885852,1.0209718341605099,-6.0026346462210265,3.729212881863606,-0.1305760317721645,71.6,0
-0.02072377083330537,-0.02524242648090415,1.1538804787204857,-4.085840349098845,10.544547558862472,-0.11234833429656083,69.5,0
0.15195225164252296,-0.05675070366738105,0.9332147039721126,-0.06618306721856917,0.4865830769300684,1.2631887888545341,77.7,0
0.09284185831580569,-0.19439668316219944,1.0185744416255242,1.3435763340703972,3.009767054521401,3.4980761657937562,76.4,0
-0.0331491514312785,0.030238219834765292,1.0315766341668202,-3.077701454386333,2.220974661072015,-3.6581738845701754,81.5,0
0.1579519850519901,-0.042986734913737515,1.0168589426537884,-5.412146431475461,-10.962228329650543,4.960763145467558,67.3,0
0.08687594250519312,0.02964303795285044,1.1722835371910214,-1.603971210984991,2.0645841783804846,4.726863098716027,77.3,0
0.14754345426067522,-0.20993576962370616,1.1005661484120788,3.50833149735193,1.8543927165748133,-2.403021559937678,84.6,0
0.12555546103083348,0.036982667258368726,0.7820895170747866,-4.226186558710476,-5.244061313306071,6.682802421267886,76.6,0
-0.049479401310648666,-0.2231121163971628,0.962850335141099,0.057969570873716396,-7.511738884446406,-0.6589351220492542,80.5,0
-0.017221724823636347,0.12879402532685522,0.9779039476655307,-2.9719773664650972,1.7940245248187925,2.1556632735238943,87.7,0
0.13967523261479142,0.07218912341350844,1.3027311595542508,5.078297209027651,6.910202641948817,-1.7543193966456077,82.8,0
0.12324443185201578,-0.007866477142458781,0.9305313228131795,-2.2797260578154788,-1.5511924225265732,3.114087901941761,68.9,0
0.047491808724302226,0.07627198600820792,0.8326274144995727,2.979027443584023,-1.3929939208596192,-1.6908271000908275,74.4,0
0.06407928599705384,-0.07780742626635524,1.0457488144214966,4.567808235012171,9.694900212622686,0.6070019784610926,77.8,0
0.203319787494611,0.027237551561489243,1.0545478579435668,6.936662886329981,3.7631532980895526,-9.951179617329494,75.7,0
-0.020988566660299593,0.09947740384603358,0.9689340704405461,-6.089904627383843,-5.0999171467944295,-1.7929600433791344,82.6,0
0.11565168574040455,-0.28942892490913896,0.9469608495543664,-6.291496437478445,-2.9946182117395495,-2.1478178719884737,75.9,0
0.025736881707932716,-0.024722435967752383,1.1223355934093129,5.243487583293422,9.152968063847835,-7.187244742845347,75.6,0
0.02387825561273357,0.017735586986362573,0.8519602768610269,4.506677874480065,-2.78473397636634,2.9200536476382313,81.4,0
0.18185322223846279,0.0003706382254233427,0.9288569985697196,-2.7761735808880887,-2.2395827141812403,-1.4653558774028264,69.0,0
0.14904996187856356,0.1657101826227405,0.9016775206829919,-14.566471618935912,2.8166740786860034,-6.908471599380838,78.4,0
0.1476211563200766,-0.09239011249228846,1.1440841896430882,0.36399203644404227,-1.1067845089984791,2.286222968154223,72.8,0
0.2066574568585195,-0.042115924344522895,1.0228241304929515,-6.8287399088869805,1.8623877506559647,4.140077927125583,79.9,0
0.052520460995931086,-0.17158690263084486,0.8202508854018095,-3.7246476478340864,1.2090815552510346,-0.5109630556432561,74.2,0
0.13183435655539566,0.17102866512731454,0.8353240410105847,0.8153660146795736,-0.6095935697496141,-5.736859259879542,78.6,0
0.012767989208785281,-0.004629014260880002,1.2610122685418226,1.4203948847956434,5.07925991129948,-7.158828892182981,73.3,0
0.08889996229861305,-0.023840888803670707,1.142482662216056,7.115916221747028,-5.356171239895305,-4.653310703660634,66.1,0
0.03438283347587785,0.014751731768928595,1.106232542228522,-1.6773145135864267,0.4934876147156173,-3.1529837520467243,77.8,0
0.06163951579912619,0.08362358284303242,0.9818370411460013,-4.393361667603342,-2.436991276490314,6.496975463828344,69.5,0
0.12141884305242963,0.05473634035161247,1.2062709860180614,4.127813905824818,6.8962898142998315,-0.7756726223467288,83.5,0
-0.0481864819880167,0.28478842135570875,0.8144892821032612,1.6968175328583808,-0.7327080032660452,-4.835889919919222,78.8,0
0.3010864730822552,0.06539358884037746,1.0929451268306736,-1.634093700635512,8.074918693153043,-2.336828299150258,79.6,0
-0.07072208577996424,-0.026524542916908107,0.9135089740211655,0.14292222423036183,-1.7713526488721085,4.0684407848603685,74.6,0
-0.09570263353452786,-0.03613567375239471,0.9426660020517156,-1.7011515193423439,0.45840319194938367,2.1096561560684672,75.9,0
0.18897330482000813,-0.019275895241680916,1.088868389724858,3.114162876077356,4.570040171761381,0.17742547402384543,64.2,0
0.14499952327555232,-0.1301836924629838,0.9584663736977739,7.595727702764876,-4.013378443909426,-0.6407321162388465,78.0,0
0.12489437804625862,0.023986420749158608,0.9147950210808113,-3.2647055195769896,6.338215791615656,0.014008665971154778,70.3,0
0.12540146111171357,0.09834681062089172,0.9057263527868111,1.8940109917011205,0.10969142315435981,0.5921989340937961,77.6,0
0.04853038725837025,-0.04133636006232359,0.6820481381733313,-6.883904375858548,1.728555476712428,-0.7380649136553753,70.5,0
-0.057670524578299784,-0.060738005628411154,1.0944805428913484,-4.826519241623161,2.293286175522311,0.38822456057822136,79.1,0
0.059096546983247164,0.17159451462942338,0.829005489080181,2.5315089861131685,-0.31943057609870706,-1.1424738695826122,76.9,0
-0.0312594053814534,-0.12264831566211652,1.2587614108488916,-0.3168038342766617,-3.4011520847509096,-3.2515553765485237,69.4,0
0.16701436801013014,-0.18678183764773015,0.936858117527751,-4.991249056116792,0.39577249899734845,-1.0013664526151997,82.8,0
0.032353114219743365,-0.09529019436473826,1.1764159696168937,0.03942691098422052,-8.447473482643609,1.2545697736995132,75.0,0
-0.049059663615101376,-0.13404327171242966,0.7086453450975978,3.955108564976824,-5.504856605664064,-2.76471304258808,71.6,0
0.01143369900164079,0.05862260641045819,1.0897224531797898,-6.511170679055308,-0.5884313759541385,1.5997501394388727,81.2,0
0.09955177451307493,-0.016070450044957354,1.1282833598767716,7.8594142352013865,6.498878839758644,3.1527932376315686,73.2,0
-0.017646946336476954,-0.0019687045023839868,1.175534545154665,2.578626230029366,6.371719021424751,1.2964654268457192,75.2,0
-0.048666447467971774,0.13529341769747733,0.750794184082008,2.668335380618045,4.1137581833320835,-2.1342762827278046,83.7,0
0.07924246537902949,-0.049133486116277644,0.8745922044369606,-0.006053646930087227,-6.464043919828063,0.3648491065048704,78.0,0
0.07939598853304673,0.09750894117456409,1.066476492913412,7.86207704480048,1.2632038451528038,0.5832143825410298,79.1,0
-0.010833181044535567,0.1711322799203203,1.0022662968266165,4.330453089621354,-3.6145421659202954,0.7573035709872817,75.4,0
-0.006524596674198725,-0.025566249801366066,1.0240039463845751,-1.6540920087041422,-0.28228240691904927,5.662049351568178,72.7,0
0.07784599248291635,0.09370228555563137,0.9259570091286001,3.4082535477117077,4.00891381107792,-4.400632018732691,74.3,0
-0.12377012097967889,-0.004181791252898012,1.2126197922583537,-3.2991323801970993,2.7631054662123673,0.7859534164132329,64.2,0
-0.11889565292518663,0.1124098128840789,1.371269817241972,-1.2611174486699301,5.389356788897194,-1.5205160488585423,79.4,0
-0.03621330655029231,-0.13714891875762733,0.9955969886013634,6.599851812466007,-5.9187329479101916,-4.733516116114689,79.0,0
0.024386341794578333,-0.14455122451253466,1.0480131868257878,1.7441253157600856,-4.295868391281356,-4.780133467606655,68.6,0
0.08730890787176054,-0.01912677149075408,0.9884365618434227,2.9768563221551156,6.3270259668329905,3.3339816480105036,77.9,0
0.22704274603394625,-0.06889248090597706,1.1726080098571154,5.263312895571295,6.3914982455743985,-5.335773189281001,61.0,0
0.15291915478424234,-0.03167091094298853,1.1043674426385217,2.4670045686839543,-0.06796940297237891,1.1351288195378444,86.7,0
0.03080737640438875,-0.0019526582447139847,0.8200429144044734,-3.6503025732114325,-0.09814393179871322,0.49960093727595367,73.1,0
0.047718055051677345,0.09200135318362518,0.8880946984258032,7.475765802441772,4.92580386254197,-3.2607087145499225,73.4,0
-0.07030352375653705,-0.02076605785659349,0.8286054810491169,2.3226628932596345,2.2349519386401173,3.1770949923870924,79.7,0
0.04777842368091321,-0.06238613106230867,1.3842233498293266,2.640586846632543,2.5466115262041913,-4.4898575992262915,78.3,0
0.015360963329583407,-0.01515133767588989,1.0752967675373104,0.2514413019853239,-3.8842241877913453,-2.0864929202022555,68.3,0
0.08872622724057075,-0.05691452798066178,0.8906470660835326,4.9984221564937545,4.827316332379397,-4.14677035111105,76.2,0
-0.04926771322627875,-0.07340055020627144,0.878667193906274,8.617303384003844,-0.8385752161368905,2.9064703522691957,78.1,0
0.11232158170894067,-0.14130168135769694,1.1007846909450365,-1.6890439150394707,-5.847892532566727,4.497470805699171,71.8,0
0.23392866956030933,0.026947811622107864,1.11573802244887,4.794367614635756,-3.2816484316651326,0.9446274495434326,79.9,0
0.036948782185177095,-0.03687057065970535,1.0997161569626615,0.15467715955043349,-2.5077374209894265,9.649193020380062,69.6,0
0.09820540665187297,0.11662787392346717,0.916166396202542,-8.99148318625323,6.2076635940845755,1.6937880964896541,79.0,0
0.13281727900533352,-0.12473960920589407,1.0258765466621267,-6.318247531677232,-2.925854161387313,2.4023437330403974,68.5,0
0.0018535433736996537,-0.03420835550478789,0.9966372646450076,1.909311329892276,1.6156955518298624,3.8247821698306215,73.9,0
0.07689109781725001,0.2012907220658749,0.839560944134236,4.54659671001663,-8.863066766200033,-2.5548762226215627,67.9,0
0.05151108809381538,-0.07396095170978495,0.8410259235685967,2.740839551498765,3.9345778010515895,1.551664501699464,80.0,0
0.06172113182585981,-0.0036533252096123993,1.0417947566814703,3.460943544620449,-3.324659832700079,-3.6744117151267734,82.3,0
-0.04276117406265598,-0.10158439828253685,1.0094676621565488,11.653225524420053,1.6414508189066839,-5.008780763655976,84.5,0
0.05294122091107313,-0.1148427512780981,1.0630027566263318,2.377725700678682,1.6398135194496934,4.15040567502846,73.9,0
0.10975979494945397,0.17473109830876785,1.0986534558040577,-1.1921501171748226,2.6585493045284965,-3.229906496594874,72.1,0
0.224137232935405,0.03710394926371473,1.2049073933746293,-0.5699004942760714,1.3956864157439814,0.696920622096851,81.1,0
0.16511249913022483,0.03336788382376234,0.863614342082593,7.357507802615898,8.041023417011536,6.199868039531558,76.3,0
0.30838189490138673,-0.14963162351162224,1.0745354298088072,-5.7113505539308065,0.8766948132608531,-6.881930061170626,72.8,0
-0.04208170754656594,0.055874138810830296,1.0923798224793027,5.570818004887364,9.443825340339162,2.4744708850059007,72.7,0
0.15467847640648139,0.13574219459938258,0.9331804381211833,0.07275485019144837,2.678477811718861,-0.08315842217759527,76.1,0
0.07200104068860222,0.13494770608285298,0.9982794775353903,-3.7421073377657956,1.1537954464130973,-0.26739532708429614,82.1,0
0.31277635198612064,0.08683332296061609,0.9370162164955889,-6.525670916694782,3.7443432016048406,0.2264244274165967,70.7,0
-0.04699579424261817,-0.0929485577595404,1.2962885575035763,6.662671545115284,0.8262338441530744,0.06650617101540461,82.6,0
-0.05076662106169312,0.05131234171929916,0.9957279035661659,-3.858129501903678,1.8864665330803274,1.9885125317682182,75.1,0
-0.021927117453282657,0.08675849604766077,1.047725766306709,0.2806288392147249,1.4586317036334064,-3.9950259803900967,82.1,0
-0.20486748691717682,-0.15944435850889016,0.9404023554624182,-4.38637576432951,1.0395563858760317,1.9081872867829937,75.0,0
-0.013090602601691315,-0.09212795914817848,0.9080548150623815,8.846369517504323,8.897788194488838,-4.284785059543751,80.2,0
-0.04109591938644375,0.10881573217434418,0.7846996007447484,0.44177861533968965,9.543966755891343,7.994817350190714,71.8,0
0.06804725437714491,0.10760457766719286,1.1449802937087998,-6.05870603383476,1.3735338116154838,-0.3989936849734326,78.1,0
0.09101071709325914,-0.13485830336213925,1.09526562460949,-1.9296699897950549,5.289727664209823,0.6818153014317705,79.3,0
0.27514050070590634,0.09950214592691727,0.9348355333340322,6.269108510143339,5.043985849987329,6.7290251982716605,66.7,0
0.16405086058232604,0.029530339915361782,0.8449445145404086,-4.395741937503671,4.589562332665242,-2.9435064703585,84.2,0
-0.01922843867948837,0.09810089546071515,1.0069862789630215,-1.6264407128978988,2.2892164034042817,-0.04273579483556194,68.7,0
-0.05780976056180295,-0.04345213234339414,0.9053454790554546,5.342185428441729,2.7862762490203536,-5.358180249972455,81.4,0
0.10903030058078068,0.08451834964809021,0.9466936147051818,1.5403089284331268,2.3990863754521325,-3.686507667281937,73.5,0
-0.10842798484247705,0.10438287744856246,0.7904660083095674,-5.487560537153215,-3.0179240406890058,-5.411097623495996,79.8,0
0.26977505190252243,-0.015133493545571173,1.0125604370972046,1.0050850091375683,-0.27431607343684755,3.033184215128856,78.1,0
0.19153281448655446,0.021775254617328602,1.0155504802983124,-0.6873753705959798,-5.026548115476711,2.1640860298616427,74.3,0
-0.006301078252564568,-0.044852162950465346,1.1442084326359527,0.23586697269373935,2.4210576760316282,-1.6610681353632337,71.6,0
-0.15557614349090526,0.18516389486858795,0.957388764705109,4.259509872335795,1.8109241962013591,-1.925451750919386,74.8,0
0.21246468489984954,0.007972806067423404,0.9299656284194245,1.0826336782191575,2.937153686493044,3.688529157554951,73.6,0
0.03625521856968586,-0.0722024325177182,0.7464858700824162,-0.4175210467776723,-3.254117016388671,-0.019180632014166952,77.8,0
0.1985379574368154,-0.05158259138747501,1.1451441422543944,-0.6385943292160958,4.050850574489242,-3.2955958549846787,76.4,0
-0.14133131905532403,0.032677060114211315,1.1139234674835439,4.845618547028712,1.9795178003034068,4.078035145142652,72.0,0
-0.021925002754452735,0.09533311717782118,0.9843107662110202,-3.241556247167088,9.378420142370684,-0.5374878857521048,69.9,0
0.050629243966181986,-0.11358268451505217,0.7806153418204441,-9.755583401167993,3.385409518499212,2.5736798381492343,73.9,0
0.05563767125176905,0.20476600029424488,0.7978209453367787,-1.0138274513477505,-2.510637160038811,0.272824900468831,75.6,0
-0.004007856577509232,0.05086752940556164,0.8979341106853566,1.7021877305069535,-5.671083580598754,7.895383457320322,72.2,0
0.12474199188169985,0.06664559729694125,1.1247838563299994,-1.873628484832752,0.9162599859069105,-0.7860026562302518,77.9,0
-0.07811445152591133,0.01028104561765636,1.0235506452862455,-2.364062408866607,-4.32273195568298,-7.632203093145833,74.9,0
0.03291446179744478,0.021925896735112554,0.7559964216677337,-1.6391145051385847,-3.0849669700064553,-0.8657903128932631,80.9,0
0.06443547580542787,0.005171686207259701,1.040631787190033,-0.11050051916283907,-4.057014450233134,1.012303872522632,77.9,0
0.11173266008704988,0.12177959690359605,0.8541280131243714,-5.84232028594493,-2.4407345756467884,1.7470619259272704,79.0,0
0.13539378537066676,0.01920714125466296,0.9016681660231781,2.976223894982512,6.116057988104521,3.073268601790084,73.1,0
-0.08495705102054431,0.09670502184927099,1.1257607018782558,-11.980510365519036,-4.062836878639873,-2.2072547122096906,82.4,0
-0.13409370048827468,-0.023384752335257223,1.0948256125671247,2.430031587697041,-1.7836847592808727,5.942881378758157,77.3,0
0.2033212186278211,0.03956405283123158,1.1439649824238134,1.409849954553394,-6.0083508469057545,3.666370962515937,82.6,0
0.089877681437551,-0.060392034423942115,0.9765299721373681,2.236616230958416,-7.166907336868092,0.49756900664065773,80.4,0
-0.039818384386786435,0.1416528232549537,1.1124536836799281,-8.677920329041822,-1.1735619566319038,-2.637159343151972,75.0,0
0.23613823706270276,-0.06337472407191158,0.8920795604355414,1.3177338821315399,0.8714344418744203,7.3263099097504725,73.0,0
0.06388095611514304,-0.012497944426132623,0.941365109809206,-2.4412540597306425,-4.831488328747177,2.7710030345272547,76.5,0
0.1915156620876592,-0.01149604124547449,0.9310560163392814,7.20985670008079,-6.381625537492294,-1.8705564251865672,74.6,0
0.05810221776921308,-0.015395138767376835,0.983579752733674,1.627743497850372,-7.859596109984228,5.327952493136531,72.5,0
0.29728975098583843,0.09224957694429371,0.7870263370531883,-5.295279073155814,0.6108420696661344,0.837126091127862,70.7,0
0.26064090109318455,-0.01166577647366437,0.9462492645314957,-7.607279700277443,3.9267472668843,5.735214428826526,85.6,0
0.020124302182511183,0.15939245305410726,1.1977485952278109,-2.766470013651447,-5.99882734269316,-3.203721662859318,69.2,0
0.16658851411452263,-0.06184750861301681,0.8161207757282849,3.6520259611057644,-2.7205725974355413,-0.7616700082826604,66.4,0
0.1274451139502177,0.036937746994270694,0.7806018077127451,5.186050464171803,4.545550157039059,5.251525806878344,77.9,0
0.21423578690388184,-0.057578598931259994,0.7926967508506658,0.8162898160099386,-0.896908016998911,-2.5416113010201,72.4,0
-0.06579081526961253,0.062097278253146676,1.379278916611196,0.36013989977053684,-0.4216236698803079,-0.9631390776503733,74.5,0
0.1323261751998127,0.018405027302322997,1.0497277971305565,-1.4942053632478176,1.597282814579355,-10.403311050849643,69.1,0
0.17701093842195054,0.004493795530152155,0.9394601923487926,-0.09609879646740012,-1.8613059429705254,1.566385490866966,78.0,0
-0.16104873837077371,0.1388474966503524,0.9902480619512205,5.470757636774696,-3.266354210133669,4.385875731107207,77.4,0
-0.09199102151989301,-0.04543418710551034,1.0141459098870227,-1.559800897440595,1.290822859475232,-3.5009255713834877,80.8,0
-0.19470786133121204,0.07865151576180002,0.883932503640593,2.9646041630505295,-5.801269780108298,1.7007707851307037,78.8,0
0.01767117986665307,-0.05689599126747924,0.9024174876936346,-2.377882615670616,-6.771301357229899,-2.0558844551176056,74.6,0
0.13610507069551547,0.031268520016037374,0.9563475301696955,4.559734505374629,-2.906582145065701,-5.7347923327867525,67.9,0
0.23028284625152334,-0.09955753282234454,0.8712867367647641,2.6042533705970046,2.9906385774715063,-1.2362579882484892,72.0,0
0.05889137365037302,-0.04625171463067404,0.9204598089468217,4.374537550273186,4.882355859116753,-2.1836609688561848,71.8,0
0.245433865468555,0.011785695442713495,1.0329637365995519,8.469535035256406,-1.9946080754193123,0.4840869299413522,70.5,0
-0.11561217498578695,0.2014649167323078,0.830427023056985,-11.618937628876582,3.4872224992171224,-1.1622088912534647,82.5,0
-0.15440589272261857,0.030080387045977413,1.3714924131421777,3.391967228669094,5.803155103603,5.081808089613654,83.0,0
0.04333427613240575,0.18546683158667063,1.09297349163293,2.11107128986587,0.15856209978512464,-2.119223196272587,73.4,0
0.09608785387271687,0.0420323291690918,0.7894872892231022,2.0137402027400744,2.672982189066548,-0.4916956625898391,80.0,0
0.04607663022870883,-0.018708424447493915,0.6083144736349082,1.082658622113025,7.8395589546118725,0.9102473991803411,77.3,0
-0.19809305200478516,0.17393565226006935,0.8768745072293332,1.0794700926170329,-2.9601142468528905,-0.1937160590753602,73.1,0
0.039305595258465394,0.06370176220734189,1.082654097441087,1.5136493086160656,-1.0148343943824938,-2.0349512026962002,76.5,0
-0.10653634006058237,-0.044272159388271365,1.0535704841675158,4.076976793121716,6.722143428836431,0.1951095617119526,66.2,0
0.13036070585960463,0.06705714594002975,0.9633727234477081,3.7183314880512737,-3.9489572995769944,1.9937679905566579,68.1,0
0.0939917895316218,-0.009259474990761022,0.8897836308285372,-0.11231363405656516,0.653183744050802,3.415018710655519,78.1,0
-0.06278557435928263,-0.1789034196171296,0.8443802939012105,-0.8436441967098931,-2.638793452082484,-8.047957976483897,80.7,0
-0.011664030080403218,0.11359731592656176,0.9196125393335739,0.09069095511316501,5.727562350695059,1.9251151695698994,80.5,0
-0.07710562262667418,0.1294934055641929,0.8281430039258597,-1.8579419685900211,-4.97615354022925,-2.56306315803121,70.7,0
0.042478508327219375,0.20379420299922754,0.9201683365687325,8.011055927495049,-0.2820042846837466,4.400331043991774,80.4,0
0.16461707846014859,0.062214369219526264,1.1796426403734233,-5.718437249394167,-4.397239765305587,3.5429422549870337,79.3,0
-0.06828712556026524,-0.004872342408253256,0.86431403011259,3.374054452771781,-6.159542405070621,3.5172619358852635,78.3,0
0.11048558186214133,0.10349894273785859,1.0716321924577983,3.3472817506866983,-7.972033296572775,-2.2179948764569137,75.3,0
-0.013630914204692895,0.10498203653189064,1.0945135719476304,-2.386762159986128,-0.6916083705169139,-5.293066372212791,73.4,0
-0.04514473987148129,0.18382811831364218,0.8180598022196126,1.3322282193563408,2.031334278661278,4.8301752251167125,79.7,0
0.03715635680545307,0.015537237693355785,0.8534942188160745,5.68331758048677,0.076946095594008,4.44189941934069,80.0,0
-0.07422907869032488,0.003442102743240555,1.1403415155480183,-1.485115797276124,0.9853548993424036,-7.613790157828097,75.0,0
-0.016437916641661846,-0.05155444197585274,0.8411353940523953,5.903706822136907,-1.8244925516968733,5.225480004813849,78.1,0
-0.0937453471106618,0.07374620867252017,0.9713771376183795,5.032058645586689,4.13439028809439,1.3485297812187904,78.3,0
0.28576701594996673,-0.13482616682308354,1.2859975733252789,-3.1943704638446606,3.0567553071920197,0.5014126431401653,75.5,0
0.05423162623660743,0.09760873728625646,1.1269748385592044,-4.986273719025725,0.527210747380006,-3.125228642306042,72.5,0
-0.03396706095911027,0.07878351218657896,0.9927845677603349,0.7444449804069586,0.8628296048273311,3.854505053874896,76.4,0
0.07567758928810664,0.07850702024583721,1.1061095861796881,-5.581342379194521,-1.9562640485413632,-1.747916445783287,80.3,0
0.03652063403710042,0.033822523650184046,0.9716116872028973,-13.071157982264603,8.170793825619155,-1.7655996747827385,71.7,0
0.023483648056013245,0.17329782475310848,1.132734774980521,-2.2023553136020912,3.3944797217202405,-8.117336360261818,81.8,0
0.12370000400521103,0.10719934654268634,0.6730601852980294,9.784135255597302,-0.4317983241856282,-2.8271718673223605,72.3,0
0.1409009252056766,-0.04070771913756997,0.9591101005437582,-2.012203728714117,-0.7250280391169152,-3.769422467829302,85.1,0
-0.013660137713263285,-0.038917904969764675,0.6670490140110767,1.7077642510255617,-1.6367583951977327,-7.8922035041368686,80.0,0
-0.019098188877361602,-0.06796738134146368,1.0042032782347743,3.149954530291355,-1.2544169171863355,5.923697950642836,73.8,0
0.016993796341802724,0.07512833327755876,0.9445733152590952,-0.18529136901186297,1.0348763423625549,-0.4741375528391298,69.2,0
-0.22623053976827018,-0.08001389212399568,1.1841094769963494,-1.5013041279936656,-7.168018056484548,-5.4176410265051524,73.3,0
-0.1318229274638263,0.12833921435833523,1.08677410528965,5.529224562891748,-1.0462507401843637,-3.6624701981248435,74.5,0
0.21402491209334296,0.15229733083455432,0.90108684686899,0.17962340040880273,-0.5505997315244752,-2.207104492028715,74.3,0
0.24739612562015406,-0.06790162689504511,0.9190675615128703,-0.41123655228232475,-0.03490772146282601,-2.2659186112334933,72.6,0
0.020115675253234606,0.0014451465407146306,1.037104479534467,3.5887170909757793,0.733371397643687,3.0422865787447724,76.2,0
0.11918683556669198,0.02166209813624137,0.894115911117009,-4.633031303577616,0.13390063875991368,-1.023204406524217,75.5,0
0.08735001854522434,0.10839831604696677,0.9751440820423183,-5.684005494623097,1.701418226209493,0.3747098097102541,72.1,0
0.4194656970146285,0.1809343375609877,1.1775047096772304,-7.312074764282805,-0.5668637329948074,-1.0060095777765947,81.3,0
0.18434898937214922,-0.14854923928685776,0.8556304724704432,2.5560560703243507,4.149614284735675,4.418961323446759,81.6,0
0.03464988902230802,-0.011818071752668285,0.9128488451065406,-0.7364817579168483,2.7628908520239235,5.235045752176566,76.1,0
-0.06466485287205108,-0.006601669556034698,0.9338851481826025,3.718610263595136,9.432939637458194,-0.5084356842993031,80.7,0
-0.14277355843090866,-0.12006698548865478,1.4537110139278435,0.229098828527881,2.9473081733152666,-3.595665913352811,79.2,0
0.07441563630406678,-0.028511001930406166,1.071236399376075,-6.1693073170755,-3.1296938364884697,-0.4162216181903109,73.0,0
-0.0407620894341164,0.06277689443506111,1.1498102508571764,-1.600259363366575,-0.6584945068156521,-11.818006237911973,78.2,0
-0.12067044515172089,-0.007867890283955715,1.0952188567817576,4.0355814615803025,-2.130691214484729,1.191583614321155,71.6,0
-0.027588746109103182,-0.1344621168607414,1.105309079897795,-1.1797650763989178,0.033454465660755606,-5.164015377494017,71.3,0
-0.07978576043372738,0.3074082698009914,1.0510360305998432,5.3406656736878375,4.611025296425304,-0.8398487666620799,79.0,0
0.25245699620870776,0.046617786520418036,1.0347903800088638,-2.0410630180391145,-1.360173939047036,1.7921441659665567,78.6,0
0.15579677083393406,0.0311694130106675,0.7623883018297195,3.2371102064458883,-2.387759294388628,-2.167111714772497,78.3,0
0.04904328304200592,-0.08979263630670464,1.033679683451441,-8.021654613030496,2.168406838217633,-1.6660873975933466,76.7,0
0.2275932966668031,0.04607061619712753,0.9637484611410563,-1.0190086011754624,-3.424097340086152,0.9803464378220111,67.4,0
0.0592841969177142,0.0035786215958505674,1.0618185354274243,-1.7418087300112675,-3.6721696506092703,-2.120851222871615,68.5,0
-0.05335410415939164,-0.16885234127154064,0.969371125003933,-6.290415069974889,1.604293113216796,3.512629403927932,77.9,0
0.23277488927235884,-0.08702554400144162,1.0944746439091988,5.003643047068709,-7.524515388972876,2.937060099100861,79.7,0
0.11466920524215904,0.09949260176739451,1.120989885672377,-2.8802966275952557,-2.0274320529919687,2.155971771738574,72.4,0
-0.07446953851917476,0.21440176500004415,0.5431759963031353,-3.3447525214718046,3.594514652513062,-2.395142119833491,84.5,0
0.02715935862996702,0.05671654050430447,0.9149160772751063,5.85584741151419,-7.701123620035788,2.179189428153865,72.8,0
-0.055074190406170856,0.13030832782933674,0.701391964116781,0.7265233966307179,-7.395601127579566,-2.823207717414178,81.9,0
-0.11593596771572033,0.0044244691416790004,1.015841683196299,3.5091069264964574,-6.022744497833587,-0.33159921910652557,67.7,0
0.16114130570379698,0.01134538393193971,0.9348937433218999,-7.662175406997639,-11.47092002001968,-10.016035333364433,71.8,0
0.27912999685641565,0.12909790276194652,1.1833742705879908,-3.5934381956293864,7.965997049420649,4.397337760204015,77.7,0
-0.11782810885829693,0.18627772891794692,1.0110866992701315,9.388750316782076,0.506033906754982,6.562088042468162,74.4,0
0.1175563084028685,0.15010966934656217,0.907170503530443,3.843213011925654,-2.81591340660143,0.8542580377149281,80.1,0
-0.02807710829461922,-0.08663630753848191,1.1207857309768376,-4.830002264727088,-5.418650405739024,-6.010125861051036,77.3,0
-0.008455046051763518,0.013304110968475422,0.9322696313258836,1.012637433127611,9.2450990816855,-0.8271624761996752,83.2,0
-0.021087270908664288,0.04775246844762952,0.9053003666159497,-4.480426743837575,2.751079574235367,0.2700435994465561,73.5,0
-0.05367889236157791,-0.00596779635075291,1.0390438121962784,6.2722595477223235,-0.5392234464695872,0.060896360305291525,70.5,0
0.055822595353379245,0.05878575434155958,1.2219457084909207,-10.213864674397511,5.121980525670484,9.655815681011147,74.9,0
-0.049714013969324525,0.10205768116689475,1.1080327862359733,1.2388380776706,1.6327921076187428,-0.9292956671878604,74.0,0
0.08245481909358066,0.12028097519551405,1.0650396447922215,1.171266628905905,-2.1083142340596694,-2.1939112850613447,72.6,0
0.04397142686610357,0.18858701522215232,1.3926422800282494,-5.006832918743518,-2.546931833430544,0.6193278664023557,71.7,0
0.021326234376030834,-0.012944110472483467,0.8701384945460761,-1.2291834224719633,-2.479676340886908,-0.54247606098431,68.8,0
-0.058907639444991736,-0.11640331648393142,0.8667923244586839,1.6899451769950569,-4.2672964287959285,-2.8479223930702116,82.5,0
-0.01921255966819993,0.055823459401445286,1.0018354220659613,-8.001565352111527,4.668616855999075,-6.694646180779057,68.6,0
0.1406469470990907,0.2083811031184802,1.207253957615707,-5.758005060050841,-2.175521481000882,2.7829686576296098,75.6,0
0.1101100625149257,-0.02769758599540591,0.8387471035558096,-0.6979809718228012,5.683375639959078,-3.28400349080861,76.6,0
-0.06730662937582611,0.08868469770637195,1.243185889634459,-3.748771667303939,-3.4804821388884903,-3.8245032477510468,77.8,0
0.06191987665150711,0.08957457924726428,0.7641316265887418,-2.0840843882182645,-2.515883733185008,-3.081997440523619,75.8,0
0.1401664548046147,0.0391442047344609,0.9618172923918232,-0.09034289321283671,-1.9001406386843933,-5.555273325105428,68.8,0
-0.15032863373456462,0.02069247210437144,1.0060198498502975,-4.097068338532781,-3.776120882206165,2.492911994366744,72.0,0
0.11520322308559221,-0.07234292057213926,0.8476052125523147,-0.11959487758297586,-2.4629959134717003,1.9853567180107328,75.7,0
-0.029514851073501602,-0.20816620724205775,0.8868148452601698,1.3409910596150536,2.312418373796778,0.7218491088076053,76.0,0
0.11847184023117913,-0.09118507066640288,1.0994945719003497,3.504906835560161,5.0483703773655995,2.697125275580385,70.0,0
-0.04159109878510202,-0.01903041491116993,1.1962333613766851,-5.606225031635228,1.2560764007314775,1.6402250107952874,79.1,0
-0.16658585207974225,0.12974226874227068,0.6628084456255967,-2.827817411536083,-5.0008659049378315,2.2335835774432855,71.5,0
-0.1453050925459795,0.009687193764862437,1.0070354578188971,2.648438881602346,-2.517911842169278,6.932902865714194,84.4,0
0.055770193599365844,-0.03190257189181485,0.9630036644576295,-6.669402789468514,-2.430204984154074,3.7307182293221,66.4,0
0.08116670020657782,-0.06909854419534305,0.9961094533435926,0.47785517309391223,7.142124270937279,0.6677603163505874,78.7,0
-0.05851799501252902,0.08568058285094804,0.9324850286575697,0.12644028144643799,4.139332247656649,-3.5480703019261965,76.7,0
0.12663109505328488,0.1558357166430605,0.7864269545665509,-11.64077322437267,5.099685100068188,-6.064507425214103,75.1,0
-0.14938240747227516,0.12634357218674594,1.2113445467066932,-2.2245557238613656,-2.9775950272276424,-6.68590305940063,79.1,0
0.04207042416232201,0.08061496997584691,1.153899439749605,1.4885186877412453,-5.3485020860683745,3.5960843439679238,72.4,0
-0.09532194397149478,-0.12756127463829403,0.9644016216654676,-0.9533304364590305,2.4081847050860876,-2.1200543634017186,74.4,0
-0.0282203329362591,-0.015167424284377142,0.9067530181289986,-2.1342728434717375,-1.9328920920471588,0.30119282047080825,70.5,0
0.05568784055796969,0.21473042288896751,0.888583905649118,0.7027786492655892,1.224660352603137,-3.621522297966739,82.7,0
-0.05324960383407429,0.13219504919152247,0.592152016277828,4.450028929484883,1.7323663986084223,8.380937671980067,73.3,0
0.0038533346924209608,-0.13375032182347252,1.0330730111903617,2.4191506102276437,-1.6594722497009464,-6.824315117635015,73.1,0
0.17075513710573287,0.01444094768007286,1.0970485385454265,-3.4013394637117913,4.217265595202725,0.526839322917764,82.5,0
-0.019227024342777843,0.05630984326610387,1.0006853174164652,-6.565454461359278,-6.133678148931786,-1.3626877784561668,67.5,0
0.150283053447817,-0.056215846302622,0.9670495348100371,2.337601763139389,0.45946518023679345,0.06969906277166237,84.3,0
-0.08556482255891416,-0.2109204021408849,1.0000075262729877,-5.2998233381432645,2.8496586413921032,-1.2183390526504774,75.5,0
0.11357650134983394,0.029882404501643173,0.8520161028863635,-2.376154124789294,7.1495187663947215,-3.3873527964504406,81.1,0
0.22298823447894806,-0.05877582576204393,0.9050667158944503,0.9042519497901513,0.5662204879871965,-4.2487468842606875,78.6,0
-0.24659734001527472,-0.05838417390846841,0.9550500457651763,5.159368371517335,5.281200864768131,7.784071605406449,66.2,0
-0.045627430656457205,-0.01546803599307581,1.0845014862147344,5.786161128331698,5.005392508817249,-1.1319220153953717,79.3,0
0.1192486552616648,0.006632408534518826,1.1868287559942667,0.2730847755557614,9.814566377712481,1.3004419571920813,70.6,0
0.025634553674840882,0.019091720590431356,0.9456278235540565,-2.292713157481217,1.3596857122623458,-6.0570970014433945,74.8,0
0.09453750480455705,-0.06839898989220014,0.8232821693651876,-5.402887607920371,8.618733977015403,-8.044497085094667,84.5,0
-0.02247822240589846,-0.0020209529634077385,0.9853470186145145,8.813835538384676,3.4022735302725002,-2.571249277750229,73.2,0
0.06039077449674799,-0.15574233704027554,1.2817236668883383,-1.3044865813862634,-6.443378185643917,3.3176835480422713,81.6,0
0.03131873175295047,0.051103906536807825,0.8363290347299399,3.0502289486075433,0.12068816208120693,0.10760956592970715,71.2,0
0.19013384739917688,-0.26562754133411576,1.1128761120699218,0.8855108255018845,-3.849516551173639,-2.051722981102081,83.4,0
0.08053050119614558,-0.008949008043361958,1.1803940834180908,-2.2302098207200887,6.427078123741858,1.6332930493346418,75.4,0
0.09051231944902427,0.11191861536769535,0.9259977710261771,-2.420802069558375,0.7080254362828682,-2.091267170332213,78.2,0
0.0005747640653039204,-0.08593406872748266,0.8748913133421439,-6.224062489709344,-5.542130079633184,5.231146963766025,75.5,0
-0.00851274688869922,0.09164302036574001,1.0662435024249879,5.050913910415497,3.7076394885354125,5.3867118378404255,76.1,0
-0.0019069825383545014,0.13557327121208923,1.0329825159206247,-0.5423878993695292,5.550508761658924,-2.193577812842156,69.2,0
0.09733425708539561,-0.3107899952497388,1.084216125698133,6.433080126189022,-1.6933293944454375,-2.9515007299999496,73.4,0
-0.0005181376984315506,0.004863709642425763,1.2910564147234707,-2.0194537501093834,-1.87756836314132,-0.2783515769524264,72.4,0
0.08477298282756955,-0.2675773427628275,1.0050569830064846,-1.3410922664677578,0.8470054927143027,1.6213613529690007,69.5,0
0.2990480958374527,0.008179155442905392,0.8011662726565847,-5.099688130660594,-7.604853972097727,-1.0404369332234353,76.4,0
0.1545349644118031,0.01928287890186732,0.9899960003252636,-1.4014824720141845,2.980822196274687,3.9747424726224794,83.0,0
0.010877176139859071,-0.22825439859108387,1.0162335191308072,-5.580535578298449,7.1035089820099655,1.0089999886613727,71.5,0
0.19414567065967336,0.21248383620798655,1.1700752955632372,1.8119765513078834,-2.7329128827550297,4.13545582115644,84.4,0
0.0010309552374138387,0.04860158076346249,0.9504853406858446,0.48514145306053874,7.7408485060699705,-4.264454536650123,75.3,0
-0.19457494422134247,-0.06490234320820354,0.9186398249456923,6.636941831842264,4.178263643460305,-2.2519674156159435,73.7,0
-0.07097035731008848,0.16653794274985184,0.7743209005750115,-6.559901167865607,-0.3234960200742454,2.0260164199238457,74.7,0
-0.17449503052310267,-0.1595613220642317,1.0621119188096195,5.472008535271377,2.666310247950771,0.2010831649359985,87.2,0
0.007818381915042964,-0.10291710335183173,1.4822310778308463,-4.402997339214738,6.710292072350458,-0.7130796811115038,77.9,0
0.05221020550274621,-0.2099455523669899,0.9466113523994092,1.5490422213178492,0.5956362105758913,-1.9726533679968183,77.9,0
0.2511724774730339,0.2001045196539334,1.0477932431782924,-5.1544734625341,1.648799628352535,0.32959246638817463,79.1,0
0.08923128485169951,0.05323463714720035,0.8978250720027555,0.912481411294666,-2.2490037048983447,5.4273356585507395,69.4,0
0.023707936542936296,0.0859401789848495,0.7878072620006239,-11.297683147945422,-0.503481000322508,-7.634638282050005,81.5,0
0.1495286697420187,0.05010012339184758,1.0451353908800796,-3.017616968972994,2.9433603914447883,-0.5774962508334575,71.9,0
-0.21533623708094624,0.07737677611445846,0.9842282425155788,0.47744589806013105,-0.7574746273013478,-0.41212243884178656,71.2,0
0.07827374697302791,0.027807771389598945,0.6221668785401264,7.899509783078191,-2.114438603526404,-4.1322687621259675,73.7,0
0.142503823266436,0.047092134270744136,1.221504307361018,-9.576066208179837,4.834143419295948,-0.5927726949092524,74.8,0
-0.12743034949358095,0.03076034362229508,1.0423946564505673,-0.010250283909448358,2.026514474672251,-6.229833646407816,76.0,0
0.1872504851848315,-0.040859180556927846,0.9910843325155406,-2.334350370741831,-2.0164750026496847,-2.219882016406409,74.5,0
0.0906195688993297,0.015337523478533085,0.9167034703861537,-8.622236880613041,7.36177249539682,-1.020232391444682,73.2,0
0.00016545033190384917,0.04735945732616777,1.0407941165739638,-5.061727759391151,8.877189870246273,-0.019737365128984746,72.7,0
0.12593382393275418,0.03105491195521308,1.0477093928624053,-2.119997817917382,4.26132090418039,7.125633242415663,76.2,0
0.32248314293652747,-0.12777721077533172,1.0401982060590067,2.101845541244736,-5.017557900787231,-3.1014290949852774,67.2,0
0.07182395060701942,-0.11449866686084094,1.1401989566755233,0.3955426276089258,1.7095478893844922,-5.033335703160642,76.1,0
0.07978647035604033,0.12828414339163913,1.1742906850750017,-5.906177762097948,2.4722058454447384,3.770065551503691,82.4,0
-0.005123307944829292,-0.010699404588340181,1.2808389595427594,-8.253158154193365,-6.656844439162072,-16.95928040290439,77.5,0
-0.051981324335775014,0.07847253470359405,0.8544736726326917,1.879419664049315,5.006693596898109,-2.3523914169873965,79.7,0
0.14964029798530948,-0.08921199097223964,0.8939867729349174,-0.8787030764028672,0.8784716746489536,-1.237548966971935,82.9,0
-0.05273005910906406,-0.127314587664653,1.0341773250562456,7.25141048590688,4.714812783850191,-3.576576231566437,79.1,0
0.0585879484663271,-0.0643596612531713,0.8631363711893323,-1.5865021177213443,-1.283247206629188,-0.36058473800011764,73.1,0
-0.007318893611813995,-0.0022565070771413294,0.8872977391441669,5.1445390351333815,2.033726881094377,-2.4643589422576193,73.5,0
0.10747757908956702,-0.046514029928441225,1.0512844372259944,2.447271391147715,2.2340214696272906,-6.617527554925111,76.6,0
0.0900394526344338,0.14939335231057138,1.1151263532469775,3.697231884878633,0.7920686069517231,2.348774174756736,69.8,0
0.1745047933109479,0.037952330153746154,1.1713891929168294,1.9458561384282136,2.0638098525627697,2.4959296149641297,88.6,0
-0.011201967862569641,0.20489386185618585,0.9511078379363599,2.0444936432597602,-0.5758532767897342,-3.752290850283092,76.0,0
0.01761500776479545,0.06044081540714173,1.0494729445306956,-10.313358053509024,-4.96876139186077,-2.0565549798925136,83.5,0
-0.06745164589387688,-0.2212550817919811,1.0164136603840654,-1.0661067064983856,-8.575086402108557,7.052997929658618,75.2,0
-0.0033151912091333863,0.12560416064585544,0.9826486167769979,-2.9862822574348953,-2.592866490057107,1.7041565622080148,76.4,0
0.09527605916538226,-0.1309551622469955,0.8575986252187974,5.717942264442955,3.3214170494859645,0.0007601119435690459,75.8,0
0.14083863399744223,0.04305336672113391,0.8385183366196218,-4.507535799804008,-4.363140979825971,6.146330594117245,82.4,0
-0.060659838901315044,-0.057468405766384484,1.0800012169933935,-1.2612618687466495,4.455381860518874,-6.162276261231395,88.4,0
0.15435271041267923,0.23427110344641863,0.8550770930173697,3.603895751865342,5.84298046996715,-7.725054245157816,68.7,0
0.21267654305659411,0.16395979274301353,0.713462176275946,1.3543442653831301,1.9854172364593523,0.6342447352272849,74.8,0
0.0996121883868441,-0.05418206417017582,0.9752358015064718,0.752883701654736,-0.6970150333826426,3.192381974931133,78.1,0
0.2752154975069679,0.007264233187888823,1.1982860453224624,4.991385245276641,4.30377465372438,-6.500656119363786,67.3,0
-0.04285470389242875,0.044459806964921744,0.5607724342396637,1.170374161385109,4.859476212677858,-4.938480734935106,72.9,0
-0.09935856439737002,0.10634140715616106,0.9367504590269732,-2.452204291068347,-0.9454495710313358,3.0136479297977323,78.1,0
-0.16344642986851343,0.02291519123250127,1.0812822297989348,-5.833212103428858,0.3562132104903517,-4.37866401484632,73.5,0
0.22952531737870197,-0.08248948993808669,0.7064755350177798,2.190157850443422,-3.416683833131515,-0.9734939295727344,76.1,0
0.12852387876248694,-0.05175586392000529,0.9480000625698377,-3.4654691779092763,1.202042673755006,0.7975853594000969,78.5,0
0.0433298394907454,0.01955182036232087,0.8090814133171187,-1.0851242133173524,-8.681220820795044,3.6284653170098013,73.4,0
0.08359623515837844,0.1434456978764691,0.8289232828989671,4.85260736377448,-1.2286521880353347,-1.1644599111551495,71.2,0
-0.08505868567580517,0.06278378605360439,0.9196372688446969,-0.9957313791687586,-3.583549541823232,1.871114041432757,71.1,0
0.34349023755401914,-0.057341492661501584,0.8115278164801745,-1.9990528270417156,-0.36994897520336967,-4.710208775081438,64.8,0
0.06550654183702731,0.084837277770979,0.7990548945272281,-1.2582665253350638,-3.339860764602299,2.2377134804392336,78.7,0
0.06312737535258715,-0.018698483887815986,0.9711152372686993,-1.1368146115970974,-8.034927629143361,-3.453282552285201,75.2,0
0.13709199486784301,0.10904080051868413,1.314070859080353,-4.460393900328419,-2.746340150616712,-5.246475598052615,82.1,0
0.10772110780840559,0.27270104183286054,1.0936614976171783,7.548111593295059,-1.9978256048357317,7.847738015798573,79.2,0
0.07686608291349577,-0.015882637094354956,1.1315799150557533,-2.4719353745890733,4.47396480176094,6.953977308584284,76.4,0
-0.04485693465343743,0.1001605159726371,1.0995893657628266,3.52974356719752,-2.6925078122313786,0.5628889929088502,77.8,0
0.1065762028563195,-0.054539333203772966,0.8753729580981174,-4.583066194033468,-3.5596036399753763,5.879068790339012,67.3,0
0.275842939577004,0.008773623280870241,1.026624834367424,2.472869199062389,-5.005947773024218,-1.2378621826705607,77.8,0
0.21145040553859734,0.02295622868721013,1.14465413914135,0.7621006688651791,4.798707401480008,-0.5168736756490555,75.0,0
0.24118239519672763,0.0006316339955619414,1.1042506201672686,0.11264432673759969,-0.9366692783555783,-0.6708362820571995,72.4,0
-0.011345881171742213,0.2663013688775024,1.0091826511052577,0.7872150099363002,1.1437756450239354,-3.4708804786173877,73.9,0
-0.06875257843102969,-0.010659307467838237,1.058006974129084,1.8718171895897104,-6.483900059338067,-8.907656227478082,79.3,0
0.03490556958804222,0.0786851538784868,1.349431094775373,-1.0210605176716536,-7.370337220563404,-1.1753239076574595,73.2,0
0.05668698947464335,-0.17300868693234325,1.1059164825734518,-0.7966157509526882,-3.7878780525150417,4.949148487723981,74.8,0
0.1813029822165138,0.06319965633696104,0.9327260964203526,2.598464178057627,6.817539349798279,1.0481164135669838,78.9,0
-0.1530957555657783,0.13420545923522467,0.9688944490603104,-5.138794588796329,-4.5839116849899755,3.095214747005621,74.7,0
0.23354603833527365,-0.032759734257905085,0.821877290511283,-5.833345364714886,-2.6296911457592222,1.4937740020967043,76.9,0
0.03103905217052127,-0.2310222141040413,1.3320553921919445,0.8052572446042093,0.05423274456104728,-3.216930387740516,75.5,0
-0.001225728393690402,0.01613482311726749,1.2205804588165314,-9.043989533077637,-2.625661606901456,0.9432582644281989,81.5,0
-0.0714525250312201,0.021718385038552807,0.9924819554408171,-7.5727782209139,2.009548381362824,-1.262828012090795,76.9,0
-0.14858280062389229,0.09240750507443042,1.3071230178150164,8.12360998182284,-3.4905282257179846,-4.0376688531588325,67.8,0
0.14878047007542974,0.22109030354134337,1.0748600067432466,6.972281541384652,-4.62424924922693,3.4943358832987874,80.0,0
0.05879815606260847,-0.01800536506003068,0.9153730373576273,-2.56843106824583,11.414870784530509,-4.960076983437079,72.8,0
-0.10479530796892646,-0.06562881236602804,1.1159678810779696,4.49630625516182,-3.9343941710706622,-2.5042555076217448,73.4,0
-0.10540945264763392,-0.09669178013714431,1.0397965207694977,4.652099523187873,3.3396803972221747,8.42451636180005,74.9,0
0.009705836085184619,0.03980786170315993,1.1056785167414598,2.1199102901757803,-3.9573978114184585,2.6656945390692584,87.0,0
0.25028258303472717,0.0679354258818502,0.7746362210515674,-0.3551638975169812,-6.471977539267359,0.9312241859358855,78.6,0
0.01884903783636743,-0.03456553943625845,0.8584528764204096,2.8190167699614728,-0.3790876352867697,-8.25916134239102,85.6,0
-0.13037715437417274,0.09786827457257896,1.2032706245184763,3.590947656451631,-5.631800031588086,-0.4480612797353494,76.3,0
0.020510832309686686,0.06653840768191757,1.2339706237346084,2.8894914327046792,-1.6512105602927882,-4.425253853038597,79.7,0
0.017273171630279548,0.024323168964489036,1.192266909045208,-6.972004756347037,-3.342551215626246,-0.29628907722401726,85.0,0
-0.2736263971529886,-0.07024147207441254,1.3127970355380285,9.148804428873781,5.257775125881159,-0.7233429173139824,80.1,0
0.043484616017862535,-0.02818643154847231,1.0666052447320795,10.814974510402358,-6.476143123924094,-3.2552643360146245,78.1,0
0.02228785637495865,-0.22297552976825452,1.0560625044245646,-8.591375782341172,2.838722218128617,4.455314509133183,69.2,0
0.1335447637776102,0.04357870641980337,0.8430189648164281,2.299350494790363,1.1974456577937642,3.628505024674815,70.9,0
0.2718747313934414,0.022634128874743524,0.8929202838730542,9.205750211786942,-0.9621539937459602,-4.27866124918672,77.5,0
0.1851878035457309,0.03884789910894865,0.6817608616535673,4.510268110451591,-3.1842531083002688,5.981472169475696,81.1,0
0.017733357133420335,0.07043190155645603,0.931777098144844,4.55819757362249,0.7235627739569191,-4.3686032815575215,75.3,0
-0.08278310904900042,0.058582148643222295,0.6712210866750128,-6.473331686451104,0.9462042224254086,6.324101272674371,79.4,0
0.3588031763899832,0.008961681935396471,1.1421449256295542,3.5599263838546182,1.6537410054939425,-0.8013960331281033,71.8,0
0.05710621208173859,0.024866804316275245,1.0382598302825679,1.0763851409997849,-1.1303642588967378,-1.5218569696658528,72.8,0
0.05167151502955355,-0.12043164166961694,0.6760746130405865,3.5093328527081793,-4.809096278109348,5.658280838695321,78.4,0
0.04710498954679961,-0.038372064568942585,0.9515204461754777,-4.659870380650003,3.6895497354860325,-0.6238186672731025,76.3,0
0.0737701712921426,0.02504710536834614,1.275148343352275,-4.821708592993043,-0.014459146489222452,4.170883637446796,74.1,0
0.0326767505691269,-0.05358535759123606,0.9611500773746384,-0.641514093468626,-2.5741038217426593,-4.944257190037589,73.3,0
-0.018839440825628342,0.10601507958725465,0.8302443584543011,-1.706339722213732,-4.206713455918458,0.1082658148165888,68.5,0
-0.015623072948847058,-0.04586320809550304,0.7121746596042139,-0.7084674402755691,3.874363171321776,1.8032513634356804,75.9,0
0.0460696075740802,0.04163054112483164,0.7166530081334167,-2.157891282178018,5.814304194920727,4.546319794922807,68.7,0
-0.01521097253605179,0.03165656568153359,1.0603369951784003,-0.9045764550501709,2.4164222926008443,2.7073533301046906,74.5,0
-0.035541493921259715,0.09462775936104098,0.9149191066512883,-2.9974406128491324,2.6982860136374556,0.17072825194105964,75.2,0
0.06277162732302763,0.1100791174028302,0.9273508787600842,-0.2172411514265906,4.924012460208994,1.7998012124847498,83.1,0
0.01940273390949737,0.08940326109679395,0.9155380004834046,-6.406034674663031,-1.5198048322872324,-2.7654243378070817,70.7,0
0.23047915862992263,-0.1906006201383134,0.9589640075802884,2.313473853729122,8.96322431437549,2.2954545718483303,78.4,0
-0.26811637700716145,0.13941481480131265,0.7959255501945428,1.1724460490604813,-4.450191449925827,1.8151579572406786,76.9,0
0.1809808222306954,0.17273082241945978,1.0274157490534068,-5.678227825843624,-1.0221297402275402,-2.954894487607078,70.7,0
0.19953022309971546,-0.028212428432146944,0.7665940634364958,5.968614280874319,-3.2405413169567443,0.4674442373989086,76.3,0
-0.1988068278889779,0.04366469126728498,0.8666236312938119,-3.7208237887805433,0.2670706561322043,2.930501315669675,69.4,0
0.00887748871035815,-0.06908316801307819,1.1316241546497685,5.350280287880783,7.2698318725842554,9.286613972943135,76.3,0
0.0054270960805050325,-0.17483785067321514,1.0364307499587784,1.4824097722620062,-1.0013016012114568,4.504950102828301,74.9,0
-0.11890140336613854,-0.05387152655423863,1.0828522769302074,4.502532952454466,1.7706558376733497,0.8550285333717765,80.4,0
-0.04333800251090503,-0.03401390394636103,1.302558258922683,0.7928519338899233,-12.2142000918625,1.0815502625747058,72.4,0
-0.08326910145589946,-0.015485073135181552,0.9710518984543254,2.5507702295446135,1.7963003706426075,-0.5521329896635803,64.9,0
0.2602724532108347,-0.07589140900059879,0.9832190390037466,4.453217943720589,4.193579046042872,0.4232876455426869,73.1,0
0.16228140717769535,-0.05334251668172389,0.9403518566224489,8.582353926820442,0.5163539958669789,2.9499638605645413,79.1,0
0.20258661139929907,0.01889936783715923,0.9134878778911779,4.835814037568316,-4.478458079544013,2.8558963561968627,76.7,0
0.1366006476851882,-0.05702269831101421,0.8284113758909321,2.0170292128988,-5.041953016404151,-0.32379527838309974,73.1,0
-0.08548621254606749,0.07435243325500279,0.9926097216793778,-6.068307463846047,-2.329060117666777,-4.177511567981086,82.1,0
-0.012942431953572836,0.08816606513974395,1.0332572909894235,-10.871254375622055,-5.077122934945211,-0.8133283426507573,74.6,0
0.10872494734735016,0.258038774616449,1.0416155508789344,-0.5868476208239878,6.619182155851081,-3.1759923548136806,79.9,0
-0.09665533706703343,0.13256799321234622,0.9896545740300617,-3.215166772242115,1.9635021796670946,-4.619213222339209,76.1,0
0.1355598116206866,0.04431030583284144,1.1189256207229972,-3.049757430353385,6.06766427197808,2.3121436482300557,79.4,0
0.0211609522210238,-0.04202642966676787,0.9844155036113581,-0.3709435325966248,-1.2142248230889308,1.3128127981361235,79.8,0
0.0050215030940483005,0.04937473516739988,0.9186047167649057,2.982572605531466,-3.2109530416052827,-3.491700173577463,82.7,0
0.13531519618441898,0.05265959599163561,0.8409517727038223,-2.7940310851516594,-2.9522999914172043,-1.2333013281487388,72.1,0
0.10331159737832477,-0.03133130890056608,0.7476537182633107,4.0283647539593055,-1.941255596030338,1.165715885966806,78.9,0
0.0066840601017104165,0.09837313967528777,1.1990622766904728,0.15072024213145888,-2.0762575914088512,0.9787997598593748,69.8,0
0.18911957640370974,-0.11980980146818752,0.8751418061769004,0.16925559555405786,5.131525380311918,1.6693295563456025,78.8,0
-0.07972759931198768,-0.004439983553751057,0.8411499285069061,8.43748400671088,3.837314324407914,-2.896409780268531,67.6,0
0.12391227283331165,0.07558584593174068,0.917369265750954,0.8014933111685002,1.1376858886354058,1.3605394751240816,85.6,0
0.12117215095620605,-0.008758414759209701,0.9382416820199305,-0.24363975207200653,-6.970896159750487,-0.18109250399424573,77.7,0
0.012854427282321168,-0.0006754403429271236,1.225776865385416,2.3575590294543076,1.239233226794715,2.933140241240493,77.1,0
0.08913596266905416,0.006221413880771954,0.9307779345363243,8.087151608271865,-1.305345508102672,4.084392147210964,67.8,0
-0.10013362916623635,-0.06356012406877455,1.3750075348102464,-0.21034680373738954,5.906187436557163,11.511072736186248,81.1,0
0.16088324230482812,0.13739009315742082,0.9895545806979773,1.978911132830786,3.7608141720559716,4.976621222770709,82.2,0
0.027811743626841322,-0.08180376719228151,1.2885542373456886,-0.4872880724816499,0.5970837654817721,0.47889007073818435,74.9,0
-0.01272676246228474,0.051815932740988516,1.1140893922146082,-0.4636826176074997,-8.810316334162376,-0.14360215232644738,73.8,0
0.1758811071004267,0.06136478982823736,1.0341556129767142,-2.205416109723624,-0.5716012968375028,-3.556590090969828,74.1,0
-0.0345212428651311,-0.07486219012089669,1.216677219985623,-2.5203774969976025,-2.7438796846876157,-3.462406006823669,84.6,0
-0.11901535556362715,0.027310425438074333,1.1483344690910449,7.632259891104161,1.7024320487082638,1.0319010515716782,75.5,0
-0.13679550082286845,-0.07096321727447022,1.0752018626279134,-2.4922486048432773,-4.79691304014382,1.1497102947049762,76.8,0
0.12272119416147675,0.15910424750559454,1.3276391014657538,-6.93288436099745,1.1018384124573837,10.170139515666563,80.8,0
-0.10365152229955397,-0.09387829369762131,0.9052410932069566,0.5643305232357243,-9.316283250661755,-2.7652828458606447,63.8,0
0.2605753018381238,-0.04538970942319644,0.8307629486057402,4.580177789134859,-5.81958758214864,-3.1602756183505374,75.6,0
-0.1998315289460466,-0.10242250083555805,0.8785653887282069,5.591322557132998,-3.695390851427254,0.9503411234686602,74.6,0
0.25357476419480457,-0.11576987268675519,1.2428409785125332,-5.3750936220476175,-2.293967784319138,-1.914390138969169,76.8,0
0.07532209606431421,0.17912152908822934,1.1976140031629143,5.007403354848387,1.63344660682802,1.4791534065057623,80.0,0
0.03839442657555292,0.07427746739125621,0.9012107150779421,9.265224803842235,-6.95121760281383,-1.8001219048027737,80.9,0
-0.01539029041707396,0.034029342570054404,0.6268023068609201,-3.078694963338117,-2.692938490671587,-1.084482212310394,74.8,0
0.09789633372224851,-0.04565769633469216,0.9491232445431916,-0.7832954729103289,-2.5861053223490913,1.6323160832584525,75.3,0
0.0454838357090182,0.11076118110467685,0.8280103537113092,-5.541999593972707,2.8895951808591076,-2.154351447864255,76.1,0
0.18239622584198256,-0.062422243936745295,0.9059096042765818,8.341647945438085,-0.80524467995836,-1.3699629717101989,79.8,0
0.06370731783944476,0.0993639294330103,0.8218386428381123,-6.7157390556761545,-4.062981206533915,2.008793472663022,81.7,0
0.06803621137542532,-0.06725112766056363,0.7385692884531465,-1.7990469938287772,-4.531085502588985,0.176891387217013,69.0,0
0.006366534534337304,-0.044450770187567185,1.262480655249635,3.5310986641451287,-2.3216686601002965,-2.4310269232034574,77.9,0
0.043166525153471906,0.09582823861179211,0.8774497694084873,-3.0780584575250973,-6.923350799737852,-1.8313969921196696,75.0,0
0.0869362122670471,0.10638273441557672,1.191900170488875,-4.4510224129270135,6.828675650389606,3.9611579297112356,86.2,0
-0.15522020711879508,0.07974729338967612,0.9467943635229714,-0.23508386613139473,-0.018305409948194146,1.1792188306497584,70.5,0
-0.11178225065268556,-0.08496741157567948,0.8103793693171334,10.755702642291691,-3.8369019526196584,-1.373693205562071,70.2,0
0.1391916912827258,-0.024672686572282877,1.0563602584893503,-1.1520026428387982,-4.428752260210393,3.2903257886225505,73.0,0
0.07050385257535302,0.03568987411985134,0.9213414714600606,-0.93182413958544,-5.070735426458621,1.6574964861007542,79.0,0
0.027921999637678507,-0.06492809619100916,0.9489348341505129,-5.020017173351027,1.5589482474196183,5.1484823139701,79.0,0
0.05221207196784718,0.1570962760129293,1.0017358901509652,1.732929737618973,-6.9441838006868055,3.3660575619084985,73.3,0
0.09170980464340053,-0.2201946943950546,0.8581680746376966,3.9767553126969295,-0.7475607093637473,4.432601611795756,81.1,0
-0.014771161637123373,-0.05787395153691528,0.7368295468819461,-2.7283685096512547,2.4092241061743995,-1.2927646617851978,73.8,0
-0.04339656704827752,-0.03095665028698318,0.9723095577898493,2.410792241970439,-2.461024711588156,-3.377785157039557,80.3,0
0.07350143061172179,-0.2643943664771768,1.1245876553950753,-2.6933761869461854,-4.249858482389458,2.932988506309722,69.0,0
-0.06740473331380384,-0.11962291302361909,0.8447613111632367,-8.521746427495401,3.518333164653247,2.9690195179070713,71.2,0
0.09899033068573662,0.08252895125420685,1.0030943399398453,2.058140844832872,-4.754122937957014,-0.397823997871192,73.9,0
-0.15431003250854086,0.023028363655296383,1.2058260722823795,9.334723560388658,-1.1662913622240838,-3.965058723616407,75.7,0
0.17349867647907724,0.17731360220429027,0.9665352669089228,-5.381533606721072,0.4839251461259512,1.1664275832810427,71.8,0
0.10671169788956517,0.1745226445884819,0.9929141557693788,0.8072092591730309,-2.537344661266861,1.4760885814133209,71.7,0
0.08072356811766508,0.06330463786039467,0.9882818530400579,5.893898173212844,-5.0332161324436235,-5.159412301749055,78.3,0
0.16792291807346166,0.05132382490007116,0.877648336116041,-0.45893621430452336,-2.345740699850103,1.4222394151463797,80.1,0
0.24985693333550918,0.02659311085789005,0.8309968222349936,-6.420753425234274,1.429368016698428,4.372441040890454,72.1,0
0.17172440780217565,-0.24550820178794905,0.8316106446018388,0.20231188416065998,-3.0599143083991613,-4.992647208276273,69.3,0
-0.17090490775979744,-0.11945595133260754,1.035227479551091,6.706619916880429,1.9108415762042101,2.0108563434187636,76.5,0
-0.10354923600828418,0.030067550309893408,1.0936808542899117,-2.2794052177726245,-1.0719578057189778,4.9793187994147745,78.3,0
-0.024978229323481455,0.08160257087476715,1.1007623357656777,1.045092847716571,-2.5412461776237807,5.216844841459389,70.8,0
0.053130926025300056,0.04896698121381407,0.9232185719366806,-4.740874515960588,-3.0467628865654808,-7.122723048182536,84.4,0
0.11211908245629476,-0.06924649677156576,1.143996281139597,-0.4476283820454806,0.9746761379009395,4.13302096941985,71.6,0
-0.03708925757841587,0.11374062824694957,1.0261045729265639,1.7401119274977015,4.733176055086368,-1.1914911662971723,74.7,0
0.0724120117372494,0.16824440287546366,0.9906113332686528,0.5663376165920431,0.5117483304621234,-1.6325801412848615,74.8,0
-0.040645951882398695,0.11379896002913399,0.4790965006094623,-1.9417382111094126,-4.051977363069656,9.546948661455874,71.9,0
-0.023382136359033787,0.11895993295904708,0.8573885582590425,1.9934671775228565,4.591321315557519,0.8356214467946399,85.1,0
-0.11879933162178667,-0.03592257979552109,0.7518353146644087,3.0127390067475064,-3.7179853905713633,-1.4547175628783844,71.3,0
-0.06078798953330851,0.12759341227007992,1.0740610260596164,3.3101954789257046,7.261463744221546,3.037041502143349,84.7,0
-0.11220215267396004,0.034575863932765724,0.9942549997895049,-1.3181788578555833,-0.6755929609512873,6.4054781766696784,74.5,0
-0.06710479035727993,0.07115555285220049,0.8192020420422337,-2.7945407402499445,-3.689353874334736,0.6585824304501733,74.5,0
0.17643701559294073,0.056543184282470904,1.0256543837701493,8.834035552418031,2.3467631168539906,-2.0279528472717265,72.8,0
-0.06392786665983316,0.007851289455958897,0.7664761450690478,0.619308725396355,-1.3080247171096775,0.34670223061210204,79.4,0
0.3658858477804869,-0.06600024751223019,0.8234355352598624,-1.1586929067098914,1.859984313322185,4.145258882102463,85.9,0
0.10919814810570672,0.011786333644595366,0.8734668003702589,-6.646869160426943,0.38641276396137286,-1.1814173506117545,73.2,0
0.07218033484338487,0.11867616174828229,1.0610204482767298,-4.196162596137014,-5.7925374112172054,4.148893696919053,74.5,0
-0.053002933621745615,-0.02414758053129096,1.1899162518805855,-2.8904319444136894,-0.29430958357519765,-0.5335487256890142,83.3,0
0.13403718552907895,0.10933472626081461,0.8920987327484098,1.9773608270367622,2.105915370939878,-7.047539675021926,70.4,0
-0.01907653914853287,0.0937070670617672,1.1783687962412415,-1.6030226614149456,0.4725568960052842,5.775670612130936,72.1,0
0.06464117775744338,-0.00989373970198303,0.987110532591719,0.06838783356896973,5.274529454835158,1.2741239606543295,82.8,0
0.35721014459225536,0.15888001036195767,1.0154207241387834,-6.449624533022336,1.3098879588991934,4.005127605516206,78.1,0
0.03847281203304202,-0.015554667119070598,0.9704293163408834,6.319929776021483,-1.0160043238847896,1.1487609580264673,71.7,0
0.1879127991542811,0.17095468626126317,0.9504029369920902,-3.3187050072637323,0.8830676623672964,0.141326604550802,79.1,0
-0.03438117101510649,0.06341269815409725,1.0458950055108387,1.0580513904318585,-2.0682545980165017,2.800189850870317,68.3,0
0.0458013811403646,0.018413408154648647,1.0910481779273067,-2.387520169360519,1.514078820760439,-0.5850821961301914,81.4,0
0.2624960762762612,-0.06878013803376538,0.847308304454622,-1.4315945096403606,1.508301114480833,6.890826794554407,66.2,0
-0.02523604693453209,0.011173976986495871,0.951604929564574,-3.5732055672454455,-5.202798685521503,-0.11566879007136169,70.9,0
0.2674938269596314,-0.00037595134944203024,1.2303912645834898,1.3333646140097961,3.244905966898615,6.911190045189218,77.9,0
0.13493023225465706,-0.10582963852509054,1.0065782981477784,-4.411539972685751,9.380570020032932,2.2976612149974214,69.7,0
-0.01749601310731211,-0.0017615422717667147,1.0230040781643723,1.4141462131033555,2.2931958719195373,-9.048410415805025,76.1,0
0.12588892868666252,-0.06038031800970857,1.155090280845114,-0.5347147281257106,-8.526175697112217,-3.7616177103337325,78.8,0
0.16670653395520757,0.07859917689787818,0.9048133251073007,2.835089187881878,-1.7924963636570483,3.228715614578503,72.3,0
0.12461719546606358,0.15062804757282028,0.9749059067148123,3.2790665643627355,-5.373511909428598,-3.4902728191966945,75.4,0
-0.13842696638685476,-0.10269156762952407,1.1025267344897869,-1.4291113988483584,-1.2255484051050751,-5.154217725799614,80.2,0
-0.03725646109898423,0.19123077283669226,1.1658353346917514,1.6471413100892398,2.880970012684424,4.879606811339432,78.2,0
0.020297763733819436,0.007144896561487025,0.625228505974188,-2.0172698484099825,-3.016773569680906,-6.035234781528457,83.6,0
0.04106798850799445,-0.07750213849385142,0.869499681365694,5.922349907007337,7.915754638918248,2.9562662236195774,71.8,0
0.12448065170608136,0.09577547802081834,0.8302452040476087,-1.615410872084338,-12.09903868995126,-1.3805112666549066,71.0,0
0.07132412011199046,-0.024645447825504808,0.9614262344911928,-0.9079968261475642,-1.0420477348855213,2.6687635788249198,82.6,0
-0.11024132304521216,0.011826332396850582,0.8415990835109798,-2.109642290893063,1.5929180891895511,1.0130422785405464,77.9,0
0.09562374212071559,-0.020427824421207896,1.0796158249264862,-3.2988433027861213,-5.121652000986234,-7.878133664896924,74.7,0
0.12327028943405878,-0.06167379318649001,1.0058615511573352,9.151640517272693,-4.568894949523741,-1.1967796967861202,73.1,0
0.11717485375172478,0.09239970324019038,1.1133785254031245,2.188852210267736,3.1764090841685735,-0.9278515784181364,80.1,0
0.17969368706655459,-0.008630140289418723,1.1229511936060352,0.3063922560150322,8.09927403277516,1.5544773049929757,74.1,0
0.15007065854586848,-0.1236651792179246,1.0818629027623774,-2.142994205284506,8.593336581758491,1.2103710015416262,79.9,0
0.1051016095074124,0.07510601242159327,0.9296314173334963,5.009002921213169,-1.4556513986134276,-0.9316207042032585,82.3,0
0.04158011462496236,-0.10055823510237553,0.9956416308134934,-2.455382880055185,5.675594828432522,-4.30967281156385,76.5,0
-0.14931531202191894,-0.09532601726752588,0.9108689142020296,0.5435063585101223,-0.2888720965557575,1.8282243292414282,69.2,0
0.1015541862959103,0.1392606204977316,0.7752897029045314,9.91328198268519,3.850132048580964,3.310403966221293,78.8,0
0.07492252245957334,-0.0996339899210212,1.1230681770631572,-4.307638204564191,-0.884713466490953,1.2571452136093508,81.5,0
0.08258946046344481,-0.21164448569274907,0.9673903059096054,2.428085045021266,-4.7656749421236695,-0.8339528726097594,82.0,0
-0.10320982909843714,0.08228614849614957,0.7546082053813081,1.2984533050723321,6.727672647272889,-1.4076688602177159,76.8,0
-0.07972678484899147,-0.010386342948113032,1.06054243566314,2.37671667943747,7.822565255106352,-3.487383463474547,67.4,0
0.17637834239994843,-0.001765512113811641,0.9464076623565878,-1.2820661886815077,-1.7673182680349753,0.943934704547621,73.7,0
0.0452533815372014,-0.011450039335020003,0.6710294041068681,-2.6651508771886463,3.9338384829286595,0.7284825434278558,73.5,0
0.13178008368471494,0.04316699390187268,0.7739406091302982,1.0192183138237616,-0.6090310537226585,3.177595478480585,80.3,0
0.053398205135655345,-0.0552719241903068,0.8749083262008356,-2.05213180605642,9.159821154495736,-2.367087021024967,78.1,0
0.05357073673948942,0.16761148745657645,1.0115768087665828,-10.492370898170524,-6.2702196861988515,0.45297702552342345,80.5,0
0.16259405671711974,-0.12762304803093985,1.0982029977575842,-3.710096945058498,-0.7488063507575351,-5.001178147436445,72.6,0
-0.011925367386084865,0.06448749166771231,1.0930653396046335,-1.4250014960753195,-6.078479397420717,-1.289944204660408,77.1,0
0.06153449323291801,0.08421210038765839,1.0704294432395454,-4.850321192123102,-6.664081585116481,-2.1346772954818936,64.5,0
-0.005473034644605093,-0.0559651760833378,0.9748456442462031,0.679440674214086,-0.4867483460328063,4.019016722565309,74.0,0
-0.0021395472918778677,-0.08237344452778184,1.2383348465897326,-3.409182795877209,-1.891804636495797,6.484169631682743,68.6,0
0.012899345183763282,0.12171742141701564,1.084980686599983,-0.1954750383804735,-4.24750596329303,-4.470137368404948,84.7,0
0.07665605259604555,-0.0790860754016715,1.0133158053863434,9.755427088995479,3.516208661391744,3.4491630670983247,78.3,0
-0.007449834599617275,-0.04066639407505669,1.064988215859554,5.521511581326665,5.454745171706264,2.5861230064884317,78.1,0
0.2006907350688225,0.10873089624597464,0.9201447495266595,2.661713732263993,2.154048048386807,-2.086230538553593,69.9,0
-0.05735287626634046,0.02347412335390242,0.9714134598447569,8.141530055880896,-7.882400331089754,-2.8566834910220575,75.4,0
0.02757540270063692,-0.15971436676291048,0.6677068940672657,-0.32663664716765245,1.4258852888711806,-2.9048373328480737,79.3,0
-0.002767726992900982,0.19470591445535143,0.9219878506283596,-0.2808351815445961,1.3848518360825852,-1.4340694347453984,71.6,0
0.22363734612244796,-0.0330010758779966,1.243983202365016,-4.750183198629269,-3.5374330674147543,-1.3633970389428431,73.7,0
0.07358657318138896,-0.02027572899064173,1.0022562915930644,5.751698266510811,1.4525944924632632,-0.5807976008387636,81.5,0
0.17382134473623617,0.045578425232636534,0.9960109666042417,8.806466695817528,-2.129258271611033,-1.9378082819702172,70.6,0
-0.12826724476443663,0.08250767970040729,1.1297906142723921,4.083343433766765,-3.4454159004689817,3.062652444034414,73.8,0
0.08204603190431106,0.2161104291291467,1.0336738123433566,6.4052374169188395,-4.967417662221355,1.9333921102776326,71.9,0
0.15675569547481244,-0.14600681494056966,0.8620274293615108,-12.318016752958867,3.5042354128728457,-0.6582840209551548,77.7,0
0.05987407871305091,0.10259522089259458,0.9835486268285485,10.528633568614172,5.432405001874239,-2.0498700579890636,79.9,0
0.17785764500784212,0.0943009694050077,0.8097171312982228,-0.46954438324212144,-0.5935543291728008,-2.151319217162409,84.0,0
-0.012074614012044654,0.00628350891258833,1.0075418255930426,10.601856634223818,4.135818246562175,1.6672555077577709,78.0,0
0.21912169282226956,0.09872736948162224,0.8543375071394088,7.7924269531929635,6.411196937033814,0.21346504257551446,82.2,0
0.32586777483431,0.11342740176365469,1.1192441918050615,3.475914349892528,0.5514886552155062,0.7552417644773042,77.8,0
0.00645937274724092,-0.11819627849870044,0.9034639067343008,-1.5436588725643317,-0.3251213244464516,3.261903636187097,69.2,0
-0.003460302568092613,0.19497665058808303,0.8562944136298183,0.7120760709557399,1.9724439789757044,-0.20641368630980678,76.2,0
0.22440613725412412,-0.1358762253138142,0.9630752017532782,-8.59511052807212,-3.518553097532874,5.206665382752069,76.3,0
0.2395486574876855,-0.09353162812387732,1.034808772869457,4.188597348556375,2.2969174852955754,-7.609128754207903,81.3,0
-0.012743203258392191,-0.006178767362409628,0.7989002004740238,-11.497522793785986,0.6346011593779515,-4.9974880089682285,75.5,0
-0.00042241805150286527,0.21249405131870566,0.901810010401462,-1.3440999324719831,-5.488123960847503,6.878328732613988,74.1,0
0.01618584693673914,-0.010825662975338646,0.9957743458540105,6.944568317162802,-5.438963954691904,-1.5114303498753527,71.7,0
-0.11133406132411323,0.01680661099491893,1.180755282430479,3.243261953032332,-4.138269897545274,1.1257852236316948,74.7,0
-0.060238233578103775,0.16320786039045634,0.6006926353559338,-6.884616425136629,2.153116506918948,4.761862895428844,75.6,0
-0.07049689201024814,-0.010031814256547273,1.0722744805524858,-6.03137473796268,-1.4168534650927507,1.304347543802864,79.0,0
-0.04213570781249541,-0.09784367129306756,0.9224651653390838,-2.688460389547989,-0.1051378592897003,3.469445933002298,71.9,0
0.04583781351358626,-0.021723483523831456,0.9058084479656497,0.35269102621641557,5.738540414061908,2.3393566343959207,87.7,0
0.07810576790438249,0.15707918338057775,0.8778309559796362,3.9444787103001775,1.859824989673563,3.7350966357345494,71.5,0
0.23606005913768924,0.027086499705513647,0.9254156624548615,2.7186214837237817,-2.6985470796118394,1.8734812723025118,69.6,0
-0.06980248488865491,0.21306582590562598,1.0731225801367992,-4.764393943665537,-4.145805283834968,2.778289782308155,78.5,0
0.16811868781719005,0.09379349262621553,0.8994820293267087,2.7842982184584333,1.2814441643259953,-2.203747480181852,69.6,0
0.02432133869293893,-0.04448089363934833,1.2287888023720435,3.26401656514695,-4.0784901475216895,1.9877081010820947,76.1,0
0.04406435484170805,0.025107630446507836,1.0735800176438606,2.198340764889152,5.262716933473714,-0.1537538871555392,72.5,0
0.13097833905999245,-0.06532181181418796,1.0096958187729306,11.15183091445137,1.0322483841333767,-0.33080691179923055,79.3,0
-0.08472664258747582,-0.046843303064876995,0.9550915823275065,3.2684353166845725,0.5425272671242325,-6.380879327388117,76.8,0
0.09588916954208607,0.46790842510257574,1.1584781305742153,4.355203346735473,-4.010842910231479,-1.6021362098020702,81.7,0
0.06997426498556673,0.1218624510033811,1.1804029530137472,8.441362607731937,2.601357539771367,-0.5106457047942954,78.1,0
0.10909415168097789,0.10610979890066732,0.8057926779118634,3.825526963722671,4.739469831544015,5.911518372144966,76.2,0
0.08470023726893817,-0.04231803153080639,0.8747152841901364,-2.479750554701812,-0.5723382479832922,-1.0614092532843027,77.0,0
0.3446360167893073,0.17695840662810788,1.075194530958804,5.592162920675117,3.89855043256704,1.074918178814639,71.2,0
-0.026528798110157903,0.1299415601792937,1.1205021416666034,-1.8062739441919222,-1.7003101412397763,5.22628682368726,72.5,0
-0.01371963460021812,0.2081621289357771,0.9349489177536097,-4.421737548608263,-0.26157600028515554,-4.703143702501582,77.1,0
-0.02477686317097172,0.2033114148398449,0.8686332710431245,-4.036399143902619,8.761339095526399,-1.4553756455526534,79.0,0
-0.016657254299230553,-0.12790892880975221,0.9917918938949817,5.541070258168868,-1.5602167799922733,3.3426324290471947,74.4,0
-0.026486455276782117,-0.09098394892699073,1.2015040146118976,2.791105977272786,2.2666769328894167,9.383347006670927,74.9,0
0.19268198373290624,-0.08037878154636365,0.9861551390078213,4.773762263556984,-1.634200072081803,-7.543221284801316,74.0,0
0.22046050975878256,-0.0743940643332437,0.7904088845262303,2.8129087513533118,1.1778474581685046,-0.44573494275086195,77.9,0
-0.018489555249937145,0.05234523642603904,0.996437484136613,0.8498128178544057,2.9237371231804565,2.387189357586622,76.0,0
-0.04988266877250744,-0.03668034520958176,1.0974122106844781,1.4310517170038104,-3.7834820638575994,3.1960407439462797,79.1,0
0.10656986676636848,0.22725985407625185,0.9647934032975363,2.659853144278535,-2.9617837969015706,8.535226223750177,72.9,0
-0.01626676531371654,0.2104679882081638,1.1687250218725864,-2.7112047207605787,2.384200634369651,-2.451578605771376,75.7,0
0.1259518181306613,0.019353840592096022,1.1098773553276229,-5.806350795511168,0.6788380456726429,-0.8930084055925095,83.6,0
0.07435076250215597,0.21553262161497902,0.9707361614455468,-2.183017785676387,4.9243945121316095,-6.186736114637943,86.2,0
-0.13188929379966785,0.16881346272402017,0.9864716029460693,2.4485550767981543,1.1336605796301151,0.48684999756148123,74.8,0
0.2357006241596074,-0.02507065591772589,0.7037360442225165,-2.9152677684343837,7.812711359481573,1.9423687830038787,82.6,0
0.2655053207714626,-0.18092153440255618,1.1615340087368244,9.58327491090335,2.926637375690865,7.9497534693120375,82.3,0
-0.023534642858126342,-0.0017968384960729347,0.9305723976994533,1.9856844751197973,7.890334209603789,6.47507035455426,80.1,0
0.003475812807681909,-0.0444622131078473,0.9200064891085477,0.5376937045967634,7.095989604672001,5.761603582593436,67.1,0
0.0843038468869886,0.040650562514583044,0.8975219590208874,-2.7285179212137907,-2.696411556963883,-2.6421597324254207,68.9,0
0.090134814798443,0.02892282868747491,1.0485046343735145,4.120816554041005,6.217656101055766,1.6200276665944116,73.5,0
0.12902531272073964,0.026301765889922855,0.8106960498856011,-5.453740018245829,3.9491328301582937,1.4788235318010043,73.5,0
0.29122454465196196,0.07236847413791646,0.8323740827431184,1.4209714702445115,3.655300729475632,1.7750152352088404,71.4,0
0.028766332700714076,-0.10125219470836785,0.972121234745097,-1.959883559672235,4.977042477479378,-0.16181496241930843,78.8,0
-0.045795669344614445,0.06113602775697079,0.8860230002622698,0.5441833923735989,-1.2985557943387949,4.297511610305969,79.1,0
-0.11551830736174325,-0.02396161530170061,1.0302850360059623,2.188229365840787,1.379539953043532,-1.3524518983450942,85.0,0
-0.037711604793030276,0.039998219986368704,0.8915166080950726,-5.155480453421542,-1.7662974365494153,1.25182980984822,73.0,0
0.04602476325514435,0.115740984523219,1.219255439656338,-7.519194056937939,9.701349000610904,5.522210452077867,72.7,0
0.2653469436221345,-0.10243997732210297,1.0840186260176605,-4.192437532892986,-3.1619673680708007,8.183590816511256,76.9,0
-0.012113355884340565,-0.008129365266956942,1.0821329318568422,3.9565878392576352,-5.369442879957274,-3.1490969024000877,69.6,0
0.07685455419666783,0.008146576597113582,0.8892557369268037,1.6791002616365205,-3.4336489035432933,2.092351043255871,85.3,0
0.048029252471269754,-0.03142689715706409,1.3408519511659172,-1.8130559694845272,-0.23099873312843083,1.726558710526292,74.2,0
0.1926071928137701,0.10998294961329573,0.9141483478588508,8.856661951432882,-0.25957580803894925,4.635554808007516,75.6,0
0.35323189110483455,-0.05203883588004715,0.8729284584064825,5.782942637390244,3.7386444769003497,6.207645953735821,76.7,0
-0.013704252750438475,-0.03554003994423388,1.0860113895433021,4.695578932251434,0.13017741560308282,-1.2671758301302647,75.3,0
-0.008732733102186654,-0.050991913295206456,1.0092842199410497,-3.2589242584445244,-2.0781357295982783,-0.2871341639566002,74.6,0
0.17529930524828863,0.12920554114388016,0.8572423536138233,4.6455642907526915,2.0283359456909875,0.2782592917682755,87.8,0
0.13182697875515736,-0.029244411241221676,1.309377074313287,1.5331866934315876,4.8923027182214724,1.8190401036678896,76.4,0
0.27160487908832404,0.06600453908835563,1.1263399247289256,-3.2501920277923273,0.8699493531102179,3.1421165337618904,78.4,0
0.12007138223911568,0.2175705101230074,0.9806007951901908,-0.46845306966240485,3.6483479775322474,-1.426168205760712,73.5,0
0.0068849491055528594,0.012518157964941469,1.3401665196624892,-4.6729560208771055,0.35020192379942433,7.0566069702877074,79.1,0
0.12087857968307711,0.13120606800331575,1.101617021643238,-3.2106807169801836,-1.0912632593879834,-6.951054572097973,76.2,0
0.18304442966994894,0.1871354084093128,0.9782148545310659,-5.148790835449713,2.9330633201603424,-4.538032973351981,77.2,0
0.1484578617436837,0.12271915600404139,1.3222156467765391,4.304493584332845,0.960251377200855,2.309133774830012,78.4,0
0.11087288373287574,0.018319868402225957,1.078847710021131,-0.31916619399372903,4.218563079656583,-0.6241529096483402,80.4,0
0.1780009627506985,0.08421077589986135,1.0722867893480554,-4.237194772568405,6.477315302888622,-2.150902804631086,79.5,0
0.19031547085348072,-0.10873785931353454,0.9220478559259246,2.3281844817770088,-0.47596915017953434,3.6460985222321227,75.9,0
0.21585907892450323,-0.0580043158149952,0.987412022854947,0.00676492382063298,2.716989296669344,3.0878109384477814,76.0,0
0.1278451865107571,-0.0404675181631919,0.9183960506203678,4.727274665700248,4.485663197446184,4.746921895301336,70.4,0
0.029945830361977482,0.24406121201742823,1.1959603619062178,0.6000151901849788,1.7232629805433084,-3.9353403693526894,75.1,0
0.06760564237199874,-0.0612584514255267,0.7385878784873805,-6.4673446103935,2.1425671262111883,3.087925494705949,76.5,0
0.1947810759810028,-0.06274767512618297,1.1848805649597272,-2.235346481996985,0.6022482848391809,3.048088842787152,80.6,0
-0.04803228051846832,-0.08439209802489835,0.8483986206953085,-5.207376986795769,1.0727778590438277,-3.828399842781184,64.2,0
0.09424079706474814,0.0759811761930761,0.9713118195254732,2.5335355706855314,2.191844405867521,0.14943260460329225,77.5,0
0.002799342520716723,0.034262139266888286,0.9357175418263655,4.880073765607092,-2.5527008701294496,3.681532421921152,72.1,0
0.0534493787521781,0.1286758977026565,0.901977127025719,-6.9479158791545945,-7.1332322605993195,5.100277120286029,79.9,0
0.20341422351287586,0.08712596660773544,1.083467622220324,-0.5602322416864418,-0.36839564639129485,-0.5579077144125156,82.6,0
0.07293188816238841,-0.11803898467240674,0.9792216180006786,5.187379009897189,-0.710450432299357,-4.175348611746363,75.8,0
0.05557238577873786,-0.06072777700103707,0.879845185977667,-7.015962484519487,6.8044500316195435,5.8224615560024855,83.2,0
-0.1131827369175903,0.15653287482758213,1.003099329526669,-1.9575712083143597,1.2439379000738342,0.15115717931466216,80.3,0
0.1395504279232665,-0.00032982445768050053,0.8755869910000236,-0.0010336441924494225,2.3605000231887945,-7.1781793094217665,76.7,0
0.12745810173692906,0.13875918180180127,0.8993336751497867,4.803496131202947,-1.7285507869305552,-0.9104946288324709,68.0,0
0.3095905667966552,0.005031905208468294,0.7554105366441792,2.4511015453112406,-2.5026649764421847,4.304705355431514,77.9,0
0.013066611805639908,-0.07676564282885213,0.9124536509772855,3.370656590447718,-3.505489259133869,-4.633394469318686,71.9,0
0.07629803931967268,-0.010326077766670612,1.0541306789591802,2.7110699138812233,-5.292886554036487,0.44543223173694063,61.7,0
0.07992604204529064,-0.07680497955496961,0.9855687376937056,-1.6790917215707142,3.051003712528562,-1.243641110663356,70.5,0
0.23929439357161691,-0.03655527624024238,1.2522595503459715,7.395332119865892,1.2878492020627923,-0.14240305545078463,82.7,0
0.03856453611356575,0.0400925706565246,1.3719226210581958,-3.0190914374445326,6.204496645901115,-1.657728539865574,76.6,0
0.08348258309244071,0.07116050903690205,0.9103672405518916,-12.502848131817215,2.308812466333172,1.9120091478833598,82.1,0
0.1229475811659847,-0.13901913232542984,0.8550023363443567,-8.102434749605129,1.020078469508326,-0.8459330481870205,83.9,0
0.07239309477876298,0.018263199249090183,1.1494724819538416,-0.5260091139968125,-8.321764595114075,2.4960812359744557,77.4,0
-0.003572033746063387,-0.03866157355597524,1.0302812363048819,-1.4919513685740065,8.014901233067404,-1.3968990479607974,73.1,0
0.0732907991477969,-0.04484148089588125,1.150381141552246,-2.4136403613850996,0.16448953218649856,4.250603677574876,70.7,0
0.17883580998317267,0.033268461913307686,1.0398246096806765,0.6759197047635304,-8.75201298051108,0.04921512122693604,75.7,0
-0.07318183592932723,-0.03504518726892121,0.9508463229986338,5.401925717312927,0.9482977788757927,-4.5878806211130305,71.5,0
0.06595636089762512,0.1582137994846674,0.9516972427671831,2.0431267632959247,-3.405782243027867,-3.253025708330341,70.3,0
-0.034014497792700785,0.13880618762510602,1.0449165167549075,2.918475916086884,-3.5557145227563134,-4.4000671999124075,72.8,0
0.19340559547098107,0.13818282939420395,0.948332915642771,-4.859044097580523,1.1193133356609337,-4.18383902696786,74.7,0
-0.13278242857405298,-0.029491019549030186,1.1629251864796804,-2.337521351629895,-2.4673852772012927,-4.990210356854477,74.8,0
-0.01707062167259059,-0.07624988349193224,0.7846494140748206,3.151600778056809,4.312092805933803,-4.1268707543501115,75.6,0
0.0952654250077425,0.028202992938811552,1.1621215454091645,0.48605426978031674,-0.48494481856360366,-0.02080531324338603,78.1,0
0.23786288350812085,0.004965163371373281,0.6989898878125945,2.146779591998821,1.6795871592063305,2.806165699638835,75.1,0
0.04210996867124146,-0.040882316242336486,1.0017653429541833,2.7617574570599217,2.3796725635863765,-5.139954292774058,79.8,0
-0.016623943203183805,-0.09757344466669615,0.9303435904064676,0.7478553196403664,1.0577060344432803,-3.057446603832341,79.6,0
0.2757388483328708,0.015848203073192842,0.7525466444523228,7.118577794950495,0.9001570800456257,3.051614626400208,81.0,0
-0.12376166804994927,-0.02040694502524733,0.6709970874981894,-2.391912246935003,0.5948587169185013,-0.6001732361836566,75.4,0
-0.21385671479440982,0.08883470370380198,0.8153727994842247,-3.685912223011402,6.272713807786015,-6.501927601019129,69.8,0
0.10280173400639989,0.08651060515214795,0.9868526489840509,-7.942359615590138,3.5443571171234884,0.14354225354001587,74.8,0
-0.010246506922313332,0.1300799805422717,0.8896723806830422,3.3687148095026935,-2.9014388377103706,1.3757223251792225,71.2,0
-0.07254793805568559,-0.10592955518800383,0.8238576648243232,-2.5652441768901415,-4.6683118061309195,1.19431569409708,80.0,0
0.1350027736759224,0.060105830769363267,1.1828421624383578,5.697026637733121,-3.3348536041577237,8.534651493197932,68.6,0
0.07925608565254386,-0.05274657062336721,0.7951722983107157,1.115786007788304,1.796821152498282,-2.862080686220907,77.7,0
-0.017689435688407404,-0.10204142108110847,1.081867599732417,-1.5247478878705985,-4.638425972871082,4.180434894669327,77.0,0
-0.10363652784050732,-0.02286022369487101,0.8466504487426693,-4.745870171678037,-2.7417464837668515,-0.09272892170121624,79.7,0
0.15469487939361737,0.12687049801346179,0.8115791100262157,3.8093021421345945,-5.640680929791939,1.779646020917704,77.4,0
0.1280241413550393,-0.017231835357048423,0.8894242059615663,-0.24249342394948475,3.91264613555863,-2.4755383491583918,75.8,0
0.03809889634647405,0.17654546599591123,1.0729874070806167,1.2051100636110674,2.783894092095661,-2.5569728050609704,70.5,0
0.2715964395257199,0.07488785155203335,0.7742801365102879,2.7199860205111914,3.69038362450023,-4.753267595788395,84.5,0
-0.07841017195913831,-0.0194090478980577,1.023118289076005,1.1958883529138644,-1.9941343902477264,-5.5784174004572105,75.7,0
-0.13306302051096863,0.13600484289064085,0.8358860003492921,-3.8241826956070533,-7.386841061402825,2.5504085623406887,74.2,0
-0.03302896838574933,0.06453967721142857,0.8628849694630922,2.345706156065566,-3.506387808213699,-2.038255190429988,76.6,0
0.044529678037340266,-0.07325593884467053,1.0400962383561598,3.690903337990627,-5.658473233418526,9.671325823588093,81.6,0
0.07920073391872302,0.20588026355805153,1.3060224244916716,1.621030662824106,-5.702682886172245,-1.7996702899390686,74.7,0
0.02105167305724042,0.04594788230864766,0.8433474515018602,2.8455676808304164,4.775153744701567,2.5563560347009364,81.8,0
0.09224664758171561,0.021879619198549183,1.0879820875485502,3.2649494095110003,-1.0368762579870154,0.2095463826460099,77.0,0
-0.10018473090285328,-0.06555326699056159,0.933093143415056,-1.7822828411833331,1.2152506952100812,-6.936120216451932,79.7,0
0.22325175248879114,0.1379538267607738,0.9087884817804806,-1.9510077943708493,4.633332785835408,-5.114726132495696,77.3,0
0.040141858592891745,0.07172754273613065,1.140706401462523,10.02054135386006,-4.282038246377802,-5.7399421613312445,79.4,0
0.1840754997905753,0.0829238180295241,0.8534715783710165,5.965919835004688,2.5798277325561374,5.581905888825099,80.4,0
0.0911270415653245,-0.030753134352576848,0.8068830159807867,-0.21692649223125612,-6.100668517158414,4.93435681198506,78.2,0
0.10481038629845407,0.10341005719100685,1.0490263692828627,3.0727303010786717,1.0604610292235839,7.325282826099091,84.0,0
0.11837207362786446,0.11118135935708018,1.219217569473012,-4.219581738778129,4.4840545022049545,-8.437613051516433,75.4,0
0.1037250272020778,-0.04687782387811225,1.0924992057936727,-2.6949656809585796,-4.785139574700202,-5.20352304729611,81.9,0
0.12712673118410528,-0.12169901396809911,0.76894739288952,-5.611093432213216,3.4799268934291234,2.2982108787669437,72.9,0
0.20949830361589178,0.07813730593389241,0.8877000434046624,1.2854762171989782,0.9443762300472394,-2.9167038179146187,78.0,0
0.07358254036417641,-0.137334694960574,1.1269397362365212,1.3381432569416534,-1.9081946580505451,2.6381562277318893,71.9,0
0.13508045091062149,0.035201577783777936,1.21716653268629,4.87721747400799,-5.041993095475992,-1.692432856006006,71.9,0
0.0392317166855328,-0.024724510478730716,1.0143066987911633,-0.9541527044559988,1.0155837729960693,-2.081415557468431,82.6,0
0.2228140658539367,0.1418665210788921,0.893124119883831,4.799645577482463,2.074128651213497,-6.900550562445184,86.4,0
-0.03116707624711236,-0.01928438907672073,1.2269028259052928,2.9381099774634265,-1.3332189049119074,-2.191647666301964,75.2,0
0.26611285194929785,0.13072729720038043,0.9688109622267248,11.066540423479259,-4.12020404589486,1.4085441765744389,71.0,0
